Folder: MatSci/FirefighterJacket/data/DMA (part 2)

File: Nomex 1 Temperature Scan 2.txt
Filename:	P:\+Courses\MatSci\Spring2016\Emily_Adam\DMA\Nomex 1 Temperature Scan 2.dm8d
Operator ID:	Adam
Sample ID:	Nomex #1
Comment: 	Temperature Scan at .030 mm
Serial Number:	3066274
Data Collected:	2/23/2016 4:20:30 AM
Validation
Validated:	No
By:
Date:
Calibration Information
Filename:	C:\Program Files (x86)\PerkinElmer\Pyris\Calibrations\2_16_16 Tension.dm8c
Date/Time:
Initial Conditions
Temperature:
Measuring System:	Tension - Rectangle
Clamp Mass	9.343 g
Length:	5.650 mm
Width:	5.910 mm
Thickness:	0.550 mm
End Condition:	Go To Load
Total Points in Run:	4474
Method Steps:
Pre-Run Actions
Start the Run
	Action occurs Immediately
Switch the Gas to Nitrogen at 20.0 ml/min
	Action occurs Immediately
1)	Heat from 250.00°C to 390.00°C at 2.00°C/min

2)	Cool from 390.00°C to 40.00°C at 2.00°C/min

3)	Heat from 40.00°C to 390.00°C at 2.00°C/min

4)	Cool from 390.00°C to 40.00°C at 2.00°C/min

1) DMA8000 Temperature Scan
	Time     	Sample     	Program     	Frequency     	Raw Dynamic	Raw Static	In-Phase     	Out-Of-Phase	Zero Displacement	Min Displacement	Max Displacement	Spring     	C*     	Measured     	Corrected     	Corrected     	Stiffness*	Total     	Stiffness     	Inertia     	Sample     	Ratio of     	Total     	Sample     	Total Applied	Static Force	Static     	Static     	Static     	Static Stress	Static     	Static Strain	Static     	Dynamic Force	Displacement	Dynamic     	Dynamic     	Storage     	Loss Modulus	Tan Delta     	Loss Viscosity	Storage     	Complex     	Shear Storage	Shear Loss	Complex     	Shear Complex
	          	Temperature	Temperature	          	Force     	Force     	Angle     	Angle     	               	               	               	Stiffness     	          	Tan Delta     	Total Tan Delta	Total Delta	          	Stiffness'	Less Spring	          	Stiffness'	Sample to Total	Stiffness''	Stiffness''	Static Force	          	Force Corrected	Displacement	Displacement Co	          	Stress Correcte	          	Strain Correcte	          	Amplitude     	Stress     	Strain     	Modulus     	          	          	               	Viscosity     	Viscosity     	Modulus     	Modulus     	Modulus     	Modulus
	0.000000	250.325	250	1.000001	32	2071	623755	30306	4.21579e+07	40197.4	42159.1	0.000044	624491	0.048586	0.035830	0.035815	2685.94	2685.4	353.572	1.863819	355.436	0.132267	96.2599	94.8783	0.125131	0.361869	0.000000	0.101525	0.000000	111327	0.000000	0.017969	0.000000	0.011034	0.031036	3394.49	0.005493	617816	164917	0.266935	26247.3	98328.5	101771	228821	61080.3	639449	236833
	2.796043	255.963	255.592	1.000001	31	2069	594502	27239.8	4.19813e+07	40063.5	41935.9	0.000045	595126	0.045819	0.033066	0.033054	2730.4	2730.12	396.037	1.863819	397.901	0.145645	90.314	88.931	0.114703	0.364711	0.002842	0.107112	0.005587	112202	874.371	0.018958	0.000989	0.011770	0.029580	3621.02	0.005235	691629	154579	0.223500	24602	110076	112792	256159	57251.6	708692	262479
	5.542946	261.425	261.086	1.000001	31	2069	592447	27694.1	4.1948e+07	40033.6	41901.4	0.000045	593094	0.046745	0.033991	0.033978	2739.75	2739.39	404.877	1.863819	406.74	0.148377	93.1559	91.7726	0.114703	0.367213	0.005344	0.108164	0.006639	112971	1644.16	0.019144	0.001175	0.011991	0.029478	3688.95	0.005217	706994	159519	0.225629	25388.2	112521	115350	261850	59081	724766	268432
	8.299957	266.85	266.6	1.000001	31	2069	592980	28156.4	4.19122e+07	39997.2	41870.1	0.000045	593648	0.047483	0.034728	0.034714	2737.19	2736.76	401.777	1.863819	403.641	0.147388	95.0836	93.7001	0.114703	0.369910	0.008041	0.109297	0.007772	113801	2473.73	0.019345	0.001376	0.011911	0.029505	3664.35	0.005222	701606	162869	0.232137	25921.4	111664	114633	259854	60321.8	720262	266764
	11.0578	272.375	272.116	1.000001	31	2069	598664	28612.4	4.18613e+07	39949.8	41827.6	0.000045	599348	0.047794	0.035038	0.035024	2711.16	2710.7	375.037	1.863819	376.901	0.138946	95.0198	93.6358	0.114703	0.373745	0.011876	0.110907	0.009383	114981	3653.74	0.019630	0.001661	0.011229	0.029788	3454.47	0.005272	655127	162757	0.248436	25903.6	104267	107436	242640	60280.5	675042	250015
	13.8094	277.938	277.619	1.000001	31	2069	607096	27939.1	4.17954e+07	39863.4	41771.2	0.000045	607738	0.046021	0.033267	0.033255	2673.73	2673.42	336.874	1.863819	338.738	0.126618	88.976	87.5915	0.114703	0.378714	0.016845	0.112992	0.011467	116509	5182.27	0.019999	0.002030	0.010232	0.030207	3147.95	0.005346	588792	152251	0.258582	24231.5	93709.1	96791.3	218071	56389.3	608158	225244
	16.5992	283.475	283.198	1.000001	30	2069	596832	27176.1	4.17297e+07	39818.1	41693	0.000045	597451	0.045534	0.032781	0.032769	2632.04	2631.75	294.317	1.863819	296.181	0.112462	86.3077	84.9227	0.114703	0.383668	0.021800	0.115069	0.013544	118034	6706.52	0.020366	0.002397	0.008795	0.029696	2705.82	0.005256	514819	147612	0.286726	23493.2	81936	85237.5	190674	54671.2	535564	198357
	19.3536	288.975	288.707	1.000001	30	2069	602574	27477.9	4.16837e+07	39763.1	41650.8	0.000045	603201	0.045601	0.032847	0.032836	2606.95	2606.65	268.583	1.863819	270.447	0.103679	85.6583	84.273	0.114703	0.387140	0.025271	0.116522	0.014997	119102	7774.57	0.020623	0.002654	0.008108	0.029982	2494.5	0.005307	470090	146483	0.311606	23313.4	74817	78365.2	174107	54252.9	492384	182364
	22.1039	294.4	294.208	1.000001	30	2069	604534	27654.1	4.16557e+07	39737.9	41622.1	0.000045	605167	0.045745	0.032991	0.032979	2598.48	2598.17	259.712	1.863819	261.575	0.100605	85.7526	84.367	0.114703	0.389261	0.027392	0.117410	0.015885	119754	8426.93	0.020780	0.002811	0.007868	0.030079	2420.54	0.005324	454669	146646	0.322534	23339.4	72362.7	76033.5	168396	54313.4	477733	176938
	24.8625	300.175	299.725	1.000001	30	2069	605366	27442.8	4.16362e+07	39708.2	41606.6	0.000045	605987	0.045333	0.032579	0.032568	2594.96	2594.68	255.955	1.863819	257.819	0.099293	84.5692	83.1834	0.114703	0.390737	0.028868	0.118028	0.016503	120208	8881.19	0.020890	0.002921	0.007765	0.030121	2388.99	0.005331	448140	144589	0.322642	23012	71323.6	74944	165978	53551.5	470888	174403
	27.6242	305.625	305.249	1.000001	30	2069	606450	26939.6	4.16218e+07	39689.6	41593.2	0.000045	607048	0.044422	0.031670	0.031659	2590.43	2590.22	251.296	1.863819	253.16	0.097666	82.0663	80.6804	0.114703	0.391827	0.029958	0.118483	0.016958	120544	9216.37	0.020970	0.003001	0.007638	0.030174	2349.84	0.005341	440041	140238	0.318694	22319.6	70034.6	73505.1	162978	51940.1	461847	171054
	30.3618	310.95	310.724	1.000001	30	2069	607104	25987.1	4.161e+07	39682.4	41584.1	0.000045	607660	0.042805	0.030054	0.030045	2587.82	2587.74	248.651	1.863819	250.515	0.096739	77.806	76.42	0.114703	0.392712	0.030843	0.118854	0.017329	120816	9488.83	0.021036	0.003067	0.007566	0.030206	2327.52	0.005346	435443	132833	0.305052	21141	69302.9	72455.7	161275	49197.3	455253	168612
	33.1165	316.413	316.233	1.000001	30	2069	608608	25140.2	4.15992e+07	39667.1	41575.9	0.000045	609127	0.041308	0.028559	0.028551	2581.58	2581.62	242.377	1.863819	244.241	0.094540	73.7583	72.3722	0.114703	0.393529	0.031660	0.119195	0.017670	121067	9740.05	0.021096	0.003127	0.007394	0.030281	2274.61	0.005359	424539	125797	0.296314	20021.2	67567.4	70471.3	157237	46591.5	442784	163994
[...]
	575.165	68.9	62.1523	1.000001	37	2074	590332	12504.2	4.23293e+07	40381	42286.5	0.000044	590464	0.021182	0.008445	0.008445	3284.59	3286.23	956.522	1.863819	958.386	0.291471	27.7679	26.3874	0.140772	0.364661	0.002793	0.096102	0.005423	112186	859.123	0.017009	0.000960	0.028114	0.029360	8649.08	0.005197	1.66586e+06	45866.5	0.027533	7299.87	265130	265230	616985	16987.6	1.66649e+06	617219
	581.962	61.4	48.5599	1.000001	37	2074	589582	12477.8	4.23457e+07	40403.8	42306.2	0.000044	589714	0.021164	0.008427	0.008427	3288.77	3290.42	960.904	1.863819	962.767	0.292432	27.744	26.3637	0.140772	0.363438	0.001569	0.095585	0.005940	111810	482.711	0.016918	0.001051	0.028206	0.029323	8677.58	0.005190	1.67348e+06	45825.2	0.027383	7293.3	266342	266442	619806	16972.3	1.6741e+06	620038
	586.394	57.3	39.6954	1.000001	37	2074	589206	12327.2	4.2354e+07	40409.1	42305.8	0.000044	589334	0.020922	0.008185	0.008185	3290.89	3292.54	963.128	1.863819	964.992	0.292918	26.9652	25.585	0.140772	0.362812	0.000944	0.095320	0.006205	111617	290.292	0.016871	0.001098	0.028253	0.029304	8692.03	0.005187	1.67734e+06	44471.7	0.026513	7077.89	266957	267051	621238	16471	1.67793e+06	621457

	BALANCE ZERO CALIBRATION RESULTS:
Date:	2/16/2016 3:55:56 PM
Zero Displacement Value:	45367595
Rebalance Force Value:	1980.000

	FORCE FACTOR CALIBRATION RESULTS:
Date:	7/27/2015 3:21:49 PM
Force Factor Value:	  383.599

	SPRING CALIBRATION RESULTS:
Date:	12/4/2014 2:37:24 PM
Stiffness polynomial = 	4.3980e-005, -7.5231e-014, 2.5704e-020, -3.6776e-029, -1.5883e-035, 2.9932e-045, 1.3748e-050
Spring Damping =	0.000593

	FORCE DISPLACEMENT CALIBRATION RESULTS:
Date:	2/22/2016 4:13:16 PM
Displacement Factor Value:	30874

	DE-MOD CONSTANT CALIBRATION RESULTS:
Date:	2/22/2016 4:13:16 PM
De-Mod Constant Value:	0.000562

	PHASE OFFSET CALIBRATION RESULTS:
Date:	2/22/2016 4:13:16 PM
Phase Offset Value:	   -0.009200

	DRIVE SHAFT MASS CALIBRATION RESULTS:
Date:	2/22/2016 4:13:16 PM
Drive Shaft Mass = 	   37.868 g

	OVEN CALIBRATION RESULTS:
Date:	2/22/2016 4:13:16 PM
Sensor Type = 	10
Oven Resistance = 	5.600 Ohms
Oven Name = 	Standard Air OvenStandard Air Oven

	TEMPERATURE CALIBRATION:
Date:	2/22/2016 4:13:16 PM
Upper Limit = 	400.00 °C
Lower Limit = 	-200.00 °C
Offset = 	-6.000
Span = 	-8.700
Ambient: 	Expected 	21.00 (°C)	Measured 	21.00 (°C)
Indium: 	Expected 	156.60 (°C)	Measured 	156.60 (°C)

	PID CALIBRATION:
Date:	12/16/2014 11:36:02 AM
Set Point =	 105.000 °C
PropBand = 	23.000
PropBandSP2 = 	13.000
Integral = 	2.100
Derivative = 	9.000
Calculated Integral = 	-57

	STIFFNESS INFINITY CALIBRATION RESULTS:
Date:	2/22/2016 4:13:16 PM
Stiffness Infinity = 	6130000.000

	INSTRUMENT INFOMATION CALIBRATION RESULTS:
Date:	2/22/2016 4:13:16 PM
DMA Serial Number = 	3066274
Vibrator Serial Number = 	22865
LVDT Serial Number = 	624.08
Analogue PCB Serial Number = 	890
Digital PCB Serial Number = 	895
PIC Code = 	603
FPGA Code = 	621
Instrument Type = 	2
AD Fitted = 	No

	PROFILE VALUES FOR THIS DATA:

Software Version	11.1.0.0488
Firmware Version	603.621
Load Temperature	22.0 °C
Go To Temp Rate	2.0 °C/min
Load Strain	0.010 mm
Load Frequency	1.0 Hz
Strain control window	0.02
Cooling Device
Automatic cryogenic control is 	Off
Automatic cryogenic control on temperature	50.0
Automatic cryogenic control off temperature	40.0
Number of averages	2
Broken sample threshold	0.0 %
Poisson's Ratio	0.35

File: Nomex 1 Temperature Scan.txt
Filename:	P:\+Courses\MatSci\Spring2016\Emily_Adam\DMA\Nomex 1 Temperature Scan.dm8d
Operator ID:	Adam
Sample ID:	Nomex #1
Comment: 	Temperature Scan at .010 mm
Serial Number:	3066274
Data Collected:	2/22/2016 6:21:24 PM
Validation
Validated:	No
By:
Date:
Calibration Information
Filename:	C:\Program Files (x86)\PerkinElmer\Pyris\Calibrations\2_16_16 Tension.dm8c
Date/Time:
Initial Conditions
Temperature:
Measuring System:	Tension - Rectangle
Clamp Mass	9.343 g
Length:	5.650 mm
Width:	5.910 mm
Thickness:	0.550 mm
End Condition:	Go To Load
Total Points in Run:	1288
Method Steps:
Pre-Run Actions
Start the Run
	Action occurs Immediately
Switch the Gas to Nitrogen at 20.0 ml/min
	Action occurs Immediately
1)	Heat from 27.00°C to 400.00°C at 2.00°C/min

1) DMA8000 Temperature Scan
	Time     	Sample     	Program     	Frequency     	Raw Dynamic	Raw Static	In-Phase     	Out-Of-Phase	Zero Displacement	Min Displacement	Max Displacement	Spring     	C*     	Measured     	Corrected     	Corrected     	Stiffness*	Total     	Stiffness     	Inertia     	Sample     	Ratio of     	Total     	Sample     	Total Applied	Static Force	Static     	Static     	Static     	Static Stress	Static     	Static Strain	Static     	Dynamic Force	Displacement	Dynamic     	Dynamic     	Storage     	Loss Modulus	Tan Delta     	Loss Viscosity	Storage     	Complex     	Shear Storage	Shear Loss	Complex     	Shear Complex
	          	Temperature	Temperature	          	Force     	Force     	Angle     	Angle     	               	               	               	Stiffness     	          	Tan Delta     	Total Tan Delta	Total Delta	          	Stiffness'	Less Spring	          	Stiffness'	Sample to Total	Stiffness''	Stiffness''	Static Force	          	Force Corrected	Displacement	Displacement Co	          	Stress Correcte	          	Strain Correcte	          	Amplitude     	Stress     	Strain     	Modulus     	          	          	               	Viscosity     	Viscosity     	Modulus     	Modulus     	Modulus     	Modulus
	0.000000	26.4	27	1.000001	313	2281	939957	228895	4.32506e+07	40538.6	43540.9	0.000044	967425	0.243516	0.230069	0.226134	16959	16569.5	14249.8	1.863819	14251.7	0.860018	3822.98	3821.61	1.220025	1.375355	0.000000	0.066961	0.000000	423121	0.000000	0.011852	0.000000	0.701738	0.046780	215886	0.008280	2.47722e+07	6.64269e+06	0.268151	1.05722e+06	3.94261e+06	4.0819e+06	9.17489e+06	2.46026e+06	2.56474e+07	9.49902e+06
	7.242382	41.4	41.4848	1.000001	332	2296	974579	217575	4.37917e+07	41000.2	44093.5	0.000044	998571	0.223251	0.209920	0.206915	17427.4	17101.1	14786.2	1.863819	14788.1	0.864651	3600.32	3598.95	1.298232	1.413617	0.038261	0.049845	0.017116	434892	11770.9	0.008822	0.003029	0.748345	0.048486	230225	0.008582	2.57046e+07	6.25567e+06	0.243368	995619	4.09101e+06	4.21042e+06	9.52022e+06	2.31691e+06	2.64549e+07	9.7981e+06
	14.6885	56.4375	56.3771	1.000001	388	2338	961800	217860	4.50741e+07	42229.1	45320.8	0.000044	986165	0.226513	0.213164	0.210020	20623.2	20233.5	17927	1.863819	17928.8	0.886012	4327.94	4326.58	1.517211	1.538620	0.163265	0.009282	0.057679	473349	50227.7	0.001643	0.010209	0.896178	0.047828	275705	0.008465	3.11638e+07	7.52043e+06	0.241320	1.19691e+06	4.95986e+06	5.10224e+06	1.15421e+07	2.78535e+06	3.20583e+07	1.18735e+07
	22.1298	71.2375	71.2596	1.000001	455	2387	963629	218100	4.68471e+07	43900.6	47052.2	0.000044	988002	0.226331	0.212983	0.209848	24139.4	23697	21394.5	1.863819	21396.4	0.902847	5067.46	5066.1	1.772686	1.664941	0.289586	0.046796	0.020165	512211	89089.7	0.008283	0.003569	1.070899	0.047892	329457	0.008476	3.71911e+07	8.80586e+06	0.236773	1.40149e+06	5.91914e+06	6.0828e+06	1.37745e+07	3.26143e+06	3.82194e+07	1.41553e+07
	28.9246	84.8	84.8492	1.000001	551	2459	966464	218755	4.85874e+07	45563.2	48745.5	0.000044	990912	0.226346	0.212997	0.209861	29146.7	28634.3	26327.9	1.863819	26329.7	0.919458	6128.83	6127.46	2.148078	1.913183	0.537828	0.101844	0.034882	588581	165460	0.018025	0.006174	1.320706	0.047994	406309	0.008495	4.57662e+07	1.06507e+07	0.232720	1.69511e+06	7.28391e+06	7.47856e+06	1.69504e+07	3.94471e+06	4.69892e+07	1.74034e+07
	35.8715	98.8125	98.7429	1.000001	732	2596	969538	214396	5.08705e+07	47782.9	50981.2	0.000044	992959	0.221132	0.207812	0.204896	38641.4	38057.7	35734.4	1.863819	35736.3	0.938955	7960.12	7958.74	2.862367	2.457966	1.082610	0.174060	0.107098	756181	333060	0.030807	0.018955	1.791756	0.048070	551225	0.008508	6.21166e+07	1.38338e+07	0.222708	2.20172e+06	9.88615e+06	1.01284e+07	2.30061e+07	5.12364e+06	6.36384e+07	2.35698e+07
	43.7521	114.513	114.504	1.000001	1278	3005	961826	199584	5.50847e+07	51970.6	55118.2	0.000046	982315	0.207505	0.194258	0.191868	68195.1	67654.3	65268.7	1.863819	65270.5	0.964739	13293	13291.6	4.994804	4.261562	2.886207	0.307357	0.240395	1.31105e+06	887927	0.054399	0.042548	3.214131	0.047452	988811	0.008399	1.13453e+08	2.31034e+07	0.203639	3.67701e+06	1.80566e+07	1.84272e+07	4.20196e+07	8.55681e+06	1.15781e+08	4.2882e+07
	48.3396	123.737	123.679	1.000001	1278	3005	918450	181066	5.60607e+07	53003.8	56008.4	0.000046	936128	0.197143	0.183946	0.181913	71559.7	71168	68763	1.863819	68764.8	0.966207	13248.4	13246.9	4.994804	4.181346	2.805991	0.338228	0.271267	1.28637e+06	863249	0.059863	0.048012	3.219022	0.045281	990316	0.008014	1.19527e+08	2.30257e+07	0.192641	3.66466e+06	1.90232e+07	1.9373e+07	4.42691e+07	8.52805e+06	1.21724e+08	4.50831e+07
	52.9944	133.05	132.989	1.000001	1278	3005	877902	168975	5.66748e+07	53673.6	56550.8	0.000046	894016	0.192476	0.179303	0.177417	74930.5	74622.9	72204.8	1.863819	72206.7	0.967596	13548.3	13546.9	4.994804	4.129958	2.754603	0.357652	0.290691	1.27056e+06	847440	0.063301	0.051450	3.223651	0.043255	991740	0.007656	1.25509e+08	2.35471e+07	0.187613	3.74764e+06	1.99754e+07	2.03239e+07	4.64849e+07	8.72116e+06	1.27699e+08	4.72959e+07
	57.6063	142.3	142.213	1.000001	1278	3005	838666	158936	5.71708e+07	54232	56981.2	0.000046	853593	0.189510	0.176351	0.174556	78478.9	78241.7	75812.6	1.863819	75814.4	0.968954	13979.7	13978.3	4.994804	4.087906	2.712550	0.373343	0.306382	1.25762e+06	834502	0.066078	0.054227	3.228175	0.041296	993132	0.007309	1.3178e+08	2.42969e+07	0.184375	3.86698e+06	2.09734e+07	2.1327e+07	4.88075e+07	8.99887e+06	1.34001e+08	4.96301e+07
	62.2192	151.425	151.438	1.000001	1278	3005	800002	150089	5.76118e+07	54736.2	57360.8	0.000047	813960	0.187611	0.174460	0.172722	82300.2	82128.4	79689.1	1.863819	79691	0.970300	14526.1	14524.6	4.994804	4.050108	2.674753	0.387291	0.320330	1.246e+06	822874	0.068547	0.056696	3.232660	0.039367	994511	0.006968	1.38518e+08	2.52466e+07	0.182262	4.01812e+06	2.20459e+07	2.24091e+07	5.13031e+07	9.3506e+06	1.408e+08	5.21483e+07
	66.8428	160.812	160.686	1.000001	1278	3005	762705	141949	5.80264e+07	55211.6	57718.9	0.000047	775802	0.186113	0.172969	0.171274	86348.1	86245.5	83796.5	1.863819	83798.3	0.971605	15134.1	15132.7	4.994804	4.014201	2.638846	0.400406	0.333444	1.23495e+06	811828	0.070868	0.059017	3.237005	0.037506	995848	0.006638	1.45658e+08	2.63035e+07	0.180584	4.18633e+06	2.31821e+07	2.35571e+07	5.39473e+07	9.74204e+06	1.48014e+08	5.48199e+07
[...]
	117.618	262.363	262.235	1.000001	1278	3005	635493	123528	6.427e+07	61492.5	63673.1	0.000050	647387	0.194381	0.181198	0.179254	103476	103479	100853	1.863819	100855	0.974622	19077.6	19076	4.994804	3.424664	2.049309	0.597894	0.530932	1.05358e+06	630460	0.105822	0.093970	3.247059	0.031168	998941	0.005516	1.75306e+08	3.31578e+07	0.189143	5.27723e+06	2.79008e+07	2.83954e+07	6.4928e+07	1.22807e+07	1.78414e+08	6.60792e+07
	122.206	271.475	271.411	1.000001	1278	3005	667296	141619	6.5544e+07	62626.1	64964.4	0.000051	682159	0.212228	0.198957	0.196392	98201.6	97788.5	95118.9	1.863819	95120.7	0.972701	19778.7	19777.1	4.994804	3.291105	1.915750	0.638193	0.571231	1.01249e+06	589371	0.112954	0.101103	3.240658	0.032766	996972	0.005799	1.65338e+08	3.43765e+07	0.207916	5.47118e+06	2.63144e+07	2.68771e+07	6.12364e+07	1.2732e+07	1.68874e+08	6.2546e+07
	124.055	275.2	275.109	1.000001	1278	3005	686563	150709	6.60876e+07	63091.9	65527.8	0.000051	702910	0.219512	0.206201	0.203351	95302.5	94718.7	92029.7	1.863819	92031.5	0.971611	19846.2	19844.6	4.994804	3.232426	1.857071	0.655387	0.588426	994440	571319	0.115998	0.104146	3.237025	0.033732	995854	0.005970	1.59969e+08	3.44937e+07	0.215628	5.48984e+06	2.54598e+07	2.60449e+07	5.92477e+07	1.27755e+07	1.63645e+08	6.06094e+07

	BALANCE ZERO CALIBRATION RESULTS:
Date:	2/16/2016 3:55:56 PM
Zero Displacement Value:	45367595
Rebalance Force Value:	1980.000

	FORCE FACTOR CALIBRATION RESULTS:
Date:	7/27/2015 3:21:49 PM
Force Factor Value:	  383.599

	SPRING CALIBRATION RESULTS:
Date:	12/4/2014 2:37:24 PM
Stiffness polynomial = 	4.3980e-005, -7.5231e-014, 2.5704e-020, -3.6776e-029, -1.5883e-035, 2.9932e-045, 1.3748e-050
Spring Damping =	0.000593

	FORCE DISPLACEMENT CALIBRATION RESULTS:
Date:	2/22/2016 4:13:16 PM
Displacement Factor Value:	30874

	DE-MOD CONSTANT CALIBRATION RESULTS:
Date:	2/22/2016 4:13:16 PM
De-Mod Constant Value:	0.000562

	PHASE OFFSET CALIBRATION RESULTS:
Date:	2/22/2016 4:13:16 PM
Phase Offset Value:	   -0.009200

	DRIVE SHAFT MASS CALIBRATION RESULTS:
Date:	2/22/2016 4:13:16 PM
Drive Shaft Mass = 	   37.868 g

	OVEN CALIBRATION RESULTS:
Date:	2/22/2016 4:13:16 PM
Sensor Type = 	10
Oven Resistance = 	5.600 Ohms
Oven Name = 	Standard Air OvenStandard Air Oven

	TEMPERATURE CALIBRATION:
Date:	2/22/2016 4:13:16 PM
Upper Limit = 	400.00 °C
Lower Limit = 	-200.00 °C
Offset = 	-6.000
Span = 	-8.700
Ambient: 	Expected 	21.00 (°C)	Measured 	21.00 (°C)
Indium: 	Expected 	156.60 (°C)	Measured 	156.60 (°C)

	PID CALIBRATION:
Date:	12/16/2014 11:36:02 AM
Set Point =	 105.000 °C
PropBand = 	23.000
PropBandSP2 = 	13.000
Integral = 	2.100
Derivative = 	9.000
Calculated Integral = 	-57

	STIFFNESS INFINITY CALIBRATION RESULTS:
Date:	2/22/2016 4:13:16 PM
Stiffness Infinity = 	6130000.000

	INSTRUMENT INFOMATION CALIBRATION RESULTS:
Date:	2/22/2016 4:13:16 PM
DMA Serial Number = 	3066274
Vibrator Serial Number = 	22865
LVDT Serial Number = 	624.08
Analogue PCB Serial Number = 	890
Digital PCB Serial Number = 	895
PIC Code = 	603
FPGA Code = 	621
Instrument Type = 	2
AD Fitted = 	No

	PROFILE VALUES FOR THIS DATA:

Software Version	11.1.0.0488
Firmware Version	603.621
Load Temperature	22.0 °C
Go To Temp Rate	2.0 °C/min
Load Strain	0.010 mm
Load Frequency	1.0 Hz
Strain control window	0.02
Cooling Device
Automatic cryogenic control is 	Off
Automatic cryogenic control on temperature	50.0
Automatic cryogenic control off temperature	40.0
Number of averages	2
Broken sample threshold	0.0 %
Poisson's Ratio	0.35