Folder: MatSci/FirefighterJacket/data/DMA

Note: README.md
# matsci
Some useful jupyter notebooks (code and visualizations) from MatSci projects at Olin College. We analyzed firefighter jackets and various gluten-free breads.

File: dma1.csv
Time,Sample,Program Temperature,Frequency,Raw Dynamic Force,Raw Static Force,In-Phase Angle,Out-Of-Phase Angle,Zero Displacement,Min Displacement,Max Displacement,Spring     ,C*     ,Measured     ,Corrected     ,Corrected     ,Stiffness*,Total     ,Stiffness     ,Inertia     ,Sample     ,Ratio of     ,Total     ,Sample     ,Total Applied,Static Force,Static     ,Static     ,Static     ,Static Stress,Static     ,Static Strain,Static     ,Dynamic Force,Displacement,Dynamic     ,Dynamic     ,Storage Modulus,Loss Modulus,Tan Delta,Loss Viscosity,Storage     ,Complex Viscosity,Shear Storage Modulus,Shear Loss Modulus,Complex Modulus,Shear Complex Modulus
          ,,,          ,     ,,,,               ,               ,               ,Stiffness     ,          ,Tan Delta     ,Total Tan Delta,Total Delta,          ,Stiffness',Less Spring,          ,Stiffness',Sample to Total,Stiffness'',Stiffness'',Static Force,          ,Force Corrected,Displacement,Displacement Co,          ,Stress Correcte,          ,Strain Correcte,          ,Amplitude     ,Stress     ,Strain     ,,          ,          ,               ,Viscosity     ,Viscosity     ,Modulus     ,Modulus     ,,
0,26.4,27,1.000001,313,2281,939956.875,228894.875,43250612.375,40538.625,43540.875,0.000044,967425,0.243516,0.230069,0.226134,16959,16569.5,14249.8,1.863819,14251.7,0.860018,3822.98,3821.61,1.220025,1.375355,0,0.066961,0,423121,0,0.011852,0,0.701738,0.04678,215886,0.00828,2.47722e+07,6.64269e+06,0.268151,1.05722e+06,3.94261e+06,4.0819e+06,9.17489e+06,2.46026e+06,2.56474e+07,9.49902e+06
7.376542,41.7125,41.7531,1.000001,332,2296,973996.25,217001.75,43796525,41008.625,44091,0.000044,997877,0.222795,0.209467,0.206481,17439.5,17114.6,14799.8,1.863819,14801.6,0.86476,3595.39,3594.02,1.298232,1.413265,0.03791,0.049694,0.017268,434784,11662.7,0.008795,0.003056,0.748439,0.048457,230254,0.008576,2.57281e+07,6.24711e+06,0.242812,994257,4.09476e+06,4.21374e+06,9.52894e+06,2.31374e+06,2.64757e+07,9.80582e+06
14.9873,56.95,56.9745,1.000001,396,2344,963829,218989.75,45191103.75,42336.25,45440.5,0.000044,988394,0.227208,0.213855,0.210682,21000.9,20602.4,18296.3,1.863819,18298.2,0.888079,4421.42,4420.05,1.548493,1.561367,0.186012,0.005583,0.061379,480347,57225.5,0.000988,0.010864,0.91679,0.047926,282046,0.008483,3.18058e+07,7.68291e+06,0.241556,1.22277e+06,5.06205e+06,5.20764e+06,1.17799e+07,2.84552e+06,3.27206e+07,1.21187e+07
22.52241,72.0375,72.0448,1.000001,455,2387,962705.25,217674.75,46901099.25,43954.5,47099.125,0.000044,987007,0.226107,0.212761,0.209635,24163.7,23722,21419.6,1.863819,21421.5,0.902949,5067.53,5066.17,1.772686,1.661006,0.28565,0.048506,0.018456,511000,87878.9,0.008585,0.003267,1.07102,0.047846,329494,0.008468,3.72347e+07,8.80598e+06,0.2365,1.40151e+06,5.92607e+06,6.08955e+06,1.37906e+07,3.26147e+06,3.82618e+07,1.4171e+07
29.379,85.8,85.758,1.000001,551,2459,965742.125,218179.625,48647709.375,45620.875,48803,0.000044,990081,0.225919,0.212573,0.209456,29171.2,28661,26354.3,1.863819,26356.1,0.919523,6122.34,6120.98,2.148078,1.908753,0.533398,0.103752,0.036791,587218,164097,0.018363,0.006512,1.3208,0.047958,406337,0.008488,4.5812e+07,1.06394e+07,0.232241,1.69332e+06,7.29121e+06,7.48526e+06,1.69674e+07,3.94053e+06,4.70313e+07,1.7419e+07
36.5244,100.0125,100.049,1.000001,732,2596,966480.875,212770.625,50954836.875,47869.625,51058,0.000044,989624,0.22015,0.206836,0.20396,38771.6,38194.3,35870.1,1.863819,35872,0.939151,7951.31,7949.93,2.862367,2.451614,1.076258,0.176728,0.109766,754227,331106,0.031279,0.019428,1.792129,0.047917,551339,0.008481,6.23524e+07,1.38185e+07,0.22162,2.19928e+06,9.92369e+06,1.01645e+07,2.30935e+07,5.11797e+06,6.38653e+07,2.36538e+07
44.249,115.5625,115.498,1.000001,1278,3005,957836.75,196840.25,55246198,52139.875,55267.625,0.000046,977853,0.205505,0.192268,0.18995,68506.2,67992.3,65603.6,1.863819,65605.5,0.964869,13223.2,13221.8,4.994804,4.248406,2.87305,0.312466,0.245505,1.307e+06,883879,0.055304,0.043452,3.214563,0.047252,988944,0.008363,1.14035e+08,2.2982e+07,0.201535,3.6577e+06,1.81492e+07,1.85141e+07,4.22352e+07,8.51187e+06,1.16328e+08,4.30844e+07
48.9186,124.925,124.837,1.000001,1278,3005,913263.125,179375.375,56147956.125,53092.875,56078.25,0.000046,930712,0.196411,0.183219,0.181209,71976.1,71596.4,69189.5,1.863819,69191.4,0.966384,13276.3,13274.9,4.994804,4.174086,2.79873,0.340989,0.274028,1.28414e+06,861015,0.060352,0.0485,3.219611,0.045022,990497,0.007968,1.20268e+08,2.30743e+07,0.191857,3.67239e+06,1.91412e+07,1.94903e+07,4.45437e+07,8.54604e+06,1.22462e+08,4.53561e+07
53.6561,134.35,134.312,1.000001,1278,3005,872030.5,167404.5,56749575.75,53759.125,56618.25,0.000046,887954,0.191971,0.1788,0.17693,75442.1,75145.2,72725.5,1.863819,72727.3,0.9678,13606,13604.6,4.994804,4.123647,2.748292,0.360019,0.293057,1.26862e+06,845498,0.06372,0.051869,3.224329,0.042962,991948,0.007604,1.26414e+08,2.36474e+07,0.187063,3.7636e+06,2.01194e+07,2.04684e+07,4.68201e+07,8.75831e+06,1.28607e+08,4.76322e+07
58.348,143.8,143.696,1.000001,1278,3005,832365.375,157247.875,57245259.375,54319.125,57042.625,0.000046,847089,0.188917,0.17576,0.173983,79081.5,78858.2,76427.4,1.863819,76429.3,0.969176,14044.1,14042.6,4.994804,4.081554,2.706199,0.375697,0.308736,1.25567e+06,832548,0.066495,0.054644,3.228912,0.040982,993359,0.007253,1.32849e+08,2.44088e+07,0.183734,3.88478e+06,2.11435e+07,2.14975e+07,4.92033e+07,9.0403e+06,1.35073e+08,5.00269e+07
63.052,153.2375,153.104,1.000001,1278,3005,793382.25,148649.25,57687066.25,54823.875,57430.375,0.000047,807188,0.187361,0.174212,0.172481,82990.7,82830,80389,1.863819,80390.9,0.970531,14631,14629.6,4.994804,4.043616,2.668261,0.389672,0.322711,1.244e+06,820877,0.068968,0.057117,3.233427,0.039037,994748,0.006909,1.39735e+08,2.5429e+07,0.18198,4.04715e+06,2.22395e+07,2.26047e+07,5.17537e+07,9.41816e+06,1.4203e+08,5.26037e+07
67.7598,162.675,162.52,1.000001,1278,3005,755189.5,140211,58106498.25,55307.75,57794.25,0.000047,768095,0.185663,0.172521,0.17084,87214.5,87129.6,84678.6,1.863819,84680.5,0.971871,15251.9,15250.4,4.994804,4.007224,2.631868,0.402939,0.335978,1.2328e+06,809681,0.071317,0.059465,3.237891,0.037131,996121,0.006572,1.47191e+08,2.65082e+07,0.180094,4.21891e+06,2.34262e+07,2.3803e+07,5.45152e+07,9.81786e+06,1.49559e+08,5.53922e+07
72.451,171.875,171.902,1.000001,1278,3005,723641,133853.25,58515912,55757.25,58147.875,0.000047,735916,0.184972,0.171833,0.170171,91028.1,91005.2,88544.3,1.863819,88546.1,0.972959,15876.9,15875.4,4.994804,3.97134,2.595985,0.415889,0.348927,1.22176e+06,798642,0.073609,0.061757,3.241518,0.035558,997237,0.006293,1.5391e+08,2.75946e+07,0.17929,4.39181e+06,2.44956e+07,2.48862e+07,5.70038e+07,1.02202e+07,1.56365e+08,5.79128e+07
77.215,181.425,181.43,1.000001,1278,3005,693039.625,126991.375,58931820.875,56231.625,58517.375,0.000047,704578,0.183238,0.170107,0.168494,95076.8,95142.3,92671.1,1.863819,92672.9,0.974026,16443.1,16441.6,4.994804,3.934515,2.55916,0.429044,0.362083,1.21043e+06,787313,0.075937,0.064085,3.245072,0.034031,998330,0.006023,1.61084e+08,2.85787e+07,0.177416,4.54844e+06,2.56372e+07,2.60376e+07,5.96606e+07,1.05847e+07,1.63599e+08,6.05922e+07
[...]
91.4104,209.925,209.821,1.000001,1278,3005,634704.375,111283.375,60187004.375,57572.75,59674,0.000048,644386,0.175331,0.162235,0.160833,103958,104316,101812,1.863819,101813,0.975996,17219.5,17218,4.994804,3.821024,2.445669,0.468747,0.401785,1.17552e+06,752398,0.082964,0.071112,3.251634,0.031117,1.00035e+06,0.005507,1.76972e+08,2.99282e+07,0.169113,4.76321e+06,2.81659e+07,2.85658e+07,6.5545e+07,1.10845e+07,1.79484e+08,6.64757e+07
96.1148,219.3125,219.23,1.000001,1278,3005,621451.125,108071.125,60647789.625,58044.625,60104.25,0.000048,630778,0.173901,0.160811,0.159446,106201,106629,104113,1.863819,104115,0.976398,17453.4,17451.9,4.994804,3.778441,2.403086,0.483321,0.41636,1.16242e+06,739297,0.085544,0.073692,3.252976,0.030456,1.00076e+06,0.00539,1.80971e+08,3.03349e+07,0.167622,4.82794e+06,2.88025e+07,2.92043e+07,6.70265e+07,1.12351e+07,1.83496e+08,6.79616e+07
100.773,228.6125,228.545,1.000001,1278,3005,612680.375,106065.625,61168126.125,58561.625,60604.375,0.000048,621794,0.173117,0.16003,0.158685,107735,108211,105679,1.863819,105681,0.976609,17630.8,17629.3,4.994804,3.729738,2.354383,0.49978,0.432819,1.14744e+06,724314,0.088457,0.076605,3.253676,0.030018,1.00098e+06,0.005313,1.83694e+08,3.06431e+07,0.166816,4.877e+06,2.92358e+07,2.96398e+07,6.8035e+07,1.13493e+07,1.86233e+08,6.89751e+07
105.452,238.1125,237.903,1.000001,1278,3005,607024.25,105085,61791139.75,59176.375,61204.75,0.000049,616053,0.173115,0.160028,0.158683,108739,109236,106687,1.863819,106689,0.976664,17800.7,17799.2,4.994804,3.670539,2.295183,0.519486,0.452525,1.12922e+06,706102,0.091944,0.080093,3.253861,0.029736,1.00103e+06,0.005263,1.85446e+08,3.09384e+07,0.166832,4.92399e+06,2.95147e+07,2.99226e+07,6.86838e+07,1.14587e+07,1.88009e+08,6.96331e+07
110.113,247.3625,247.226,1.000001,1278,3005,610054.125,107351.875,62564570.625,59909.25,61973.375,0.000049,619428,0.175971,0.162872,0.161454,108147,108580,106008,1.863819,106009,0.976311,18006.5,18004.9,4.994804,3.595651,2.220296,0.54395,0.476989,1.10618e+06,683063,0.096274,0.084423,3.252684,0.029889,1.00067e+06,0.00529,1.84265e+08,3.12961e+07,0.169843,4.98092e+06,2.93267e+07,2.97466e+07,6.82463e+07,1.15911e+07,1.86904e+08,6.92236e+07
114.792,256.7,256.584,1.000001,1278,3005,622226.625,114850.875,63570648.875,60849.5,62972.125,0.00005,632737,0.18458,0.171443,0.169793,105872,106101,103498,1.863819,103500,0.975463,18514.8,18513.3,4.994804,3.495799,2.120444,0.575773,0.508812,1.07547e+06,652344,0.101907,0.090055,3.249859,0.030501,999803,0.005398,1.79903e+08,3.21797e+07,0.178872,5.12155e+06,2.86324e+07,2.90868e+07,6.66307e+07,1.19184e+07,1.82758e+08,6.76882e+07
119.44,266.0625,265.88,1.000001,1278,3005,645252.25,129560.25,64766450.5,61936.375,64171.125,0.00005,658131,0.20079,0.187576,0.185422,101787,101641,98998.8,1.863819,99000.6,0.974,19393.2,19391.6,4.994804,3.373252,1.997897,0.613597,0.546636,1.03776e+06,614643,0.108601,0.09675,3.244986,0.031659,998304,0.005603,1.72082e+08,3.37063e+07,0.195873,5.36453e+06,2.73877e+07,2.79082e+07,6.37342e+07,1.24838e+07,1.75352e+08,6.49453e+07
124.055,275.2,275.109,1.000001,1278,3005,686563.125,150708.875,66087635.875,63091.875,65527.75,0.000051,702910,0.219512,0.206201,0.203351,95302.5,94718.7,92029.7,1.863819,92031.5,0.971611,19846.2,19844.6,4.994804,3.232426,1.857071,0.655387,0.588426,994440,571319,0.115998,0.104146,3.237025,0.033732,995854,0.00597,1.59969e+08,3.44937e+07,0.215628,5.48984e+06,2.54598e+07,2.60449e+07,5.92477e+07,1.27755e+07,1.63645e+08,6.06094e+07

File: dma2.csv
Time,Sample     ,Program Temperature,Frequency     ,Raw Dynamic,Raw Static,In-Phase     ,Out-Of-Phase,Zero Displacement,Min Displacement,Max Displacement,Spring     ,C*     ,Measured     ,Corrected     ,Corrected     ,Stiffness*,Total     ,Stiffness     ,Inertia     ,Sample     ,Ratio of     ,Total     ,Sample     ,Total Applied,Static Force,Static     ,Static     ,Static     ,Static Stress,Static     ,Static Strain,Static     ,Dynamic Force,Displacement,Dynamic     ,Dynamic     ,Storage Modulus,Loss Modulus,Tan Delta,Loss Viscosity,Storage     ,Complex     ,Shear Storage Modulus,Shear Loss Modulus,Complex     ,Shear Complex
          ,Temperature,Temperature,          ,Force     ,Force     ,Angle     ,Angle     ,               ,               ,               ,Stiffness     ,          ,Tan Delta     ,Total Tan Delta,Total Delta,          ,Stiffness',Less Spring,          ,Stiffness',Sample to Total,Stiffness'',Stiffness'',Static Force,          ,Force Corrected,Displacement,Displacement Co,          ,Stress Correcte,          ,Strain Correcte,          ,Amplitude     ,Stress     ,Strain     ,Modulus     ,          ,          ,               ,Viscosity     ,Viscosity     ,Modulus     ,Modulus     ,Modulus     ,Modulus
0,250.325,250,1.000001,32,2071,623754.75,30306,42157889.25,40197.375,42159.125,0.000044,624491,0.048586,0.03583,0.035815,2685.94,2685.4,353.572,1.863819,355.436,0.132267,96.25993,94.87827,0.125131,0.361869,0,0.101525,0,111327,0,0.017969,0,0.011034,0.031036,3394.49,0.005493,617816,164917,0.266935,26247.3,98328.5,101771,228821,61080.3,639449,236833
2.796043,255.9625,255.592,1.000001,31,2069,594502.5,27239.75,41981255,40063.5,41935.875,0.000045,595126,0.045819,0.033066,0.033054,2730.4,2730.12,396.037,1.863819,397.901,0.145645,90.314,88.931,0.114703,0.364711,0.002842,0.107112,0.005587,112202,874.371,0.018958,0.000989,0.01177,0.02958,3621.02,0.005235,691629,154579,0.2235,24602,110076,112792,256159,57251.6,708692,262479
5.542946,261.425,261.086,1.000001,31,2069,592447.125,27694.125,41947998.625,40033.625,41901.375,0.000045,593094,0.046745,0.033991,0.033978,2739.75,2739.39,404.877,1.863819,406.74,0.148377,93.1559,91.7726,0.114703,0.367213,0.005344,0.108164,0.006639,112971,1644.16,0.019144,0.001175,0.011991,0.029478,3688.95,0.005217,706994,159519,0.225629,25388.2,112521,115350,261850,59081,724766,268432
8.299957,266.85,266.6,1.000001,31,2069,592980.375,28156.375,41912178.125,39997.25,41870.125,0.000045,593648,0.047483,0.034728,0.034714,2737.19,2736.76,401.777,1.863819,403.641,0.147388,95.0836,93.7001,0.114703,0.36991,0.008041,0.109297,0.007772,113801,2473.73,0.019345,0.001376,0.011911,0.029505,3664.35,0.005222,701606,162869,0.232137,25921.4,111664,114633,259854,60321.8,720262,266764
11.05778,272.375,272.116,1.000001,31,2069,598664.375,28612.375,41861258.625,39949.75,41827.625,0.000045,599348,0.047794,0.035038,0.035024,2711.16,2710.7,375.037,1.863819,376.901,0.138946,95.0198,93.6358,0.114703,0.373745,0.011876,0.110907,0.009383,114981,3653.74,0.01963,0.001661,0.011229,0.029788,3454.47,0.005272,655127,162757,0.248436,25903.6,104267,107436,242640,60280.5,675042,250015
13.8094,277.9375,277.619,1.000001,31,2069,607095.875,27939.125,41795357.625,39863.375,41771.25,0.000045,607738,0.046021,0.033267,0.033255,2673.73,2673.42,336.874,1.863819,338.738,0.126618,88.97597,87.5915,0.114703,0.378714,0.016845,0.112992,0.011467,116509,5182.27,0.019999,0.00203,0.010232,0.030207,3147.95,0.005346,588792,152251,0.258582,24231.5,93709.1,96791.3,218071,56389.3,608158,225244
16.5992,283.475,283.198,1.000001,30,2069,596832.375,27176.125,41729707.125,39818.125,41693,0.000045,597451,0.045534,0.032781,0.032769,2632.04,2631.75,294.317,1.863819,296.181,0.112462,86.3077,84.9227,0.114703,0.383668,0.0218,0.115069,0.013544,118034,6706.52,0.020366,0.002397,0.008795,0.029696,2705.82,0.005256,514819,147612,0.286726,23493.2,81936,85237.5,190674,54671.2,535564,198357
19.3536,288.975,288.707,1.000001,30,2069,602574.375,27477.875,41683744.625,39763.125,41650.75,0.000045,603201,0.045601,0.032847,0.032836,2606.95,2606.65,268.583,1.863819,270.447,0.103679,85.6583,84.273,0.114703,0.38714,0.025271,0.116522,0.014997,119102,7774.57,0.020623,0.002654,0.008108,0.029982,2494.5,0.005307,470090,146483,0.311606,23313.4,74817,78365.2,174107,54252.9,492384,182364
22.1039,294.4,294.208,1.000001,30,2069,604534.375,27654.125,41655687.375,39737.875,41622.125,0.000045,605167,0.045745,0.032991,0.032979,2598.48,2598.17,259.712,1.863819,261.575,0.100605,85.7526,84.367,0.114703,0.389261,0.027392,0.11741,0.015885,119754,8426.93,0.02078,0.002811,0.007868,0.030079,2420.54,0.005324,454669,146646,0.322534,23339.4,72362.7,76033.5,168396,54313.4,477733,176938
24.8625,300.175,299.725,1.000001,30,2069,605365.5,27442.75,41636157.25,39708.25,41606.625,0.000045,605987,0.045333,0.032579,0.032568,2594.96,2594.68,255.955,1.863819,257.819,0.099293,84.5692,83.1834,0.114703,0.390737,0.028868,0.118028,0.016503,120208,8881.19,0.02089,0.002921,0.007765,0.030121,2388.99,0.005331,448140,144589,0.322642,23012,71323.6,74944,165978,53551.5,470888,174403
27.62425,305.625,305.249,1.000001,30,2069,606449.625,26939.625,41621750.625,39689.625,41593.25,0.000045,607048,0.044422,0.03167,0.031659,2590.43,2590.22,251.296,1.863819,253.16,0.097666,82.0663,80.6804,0.114703,0.391827,0.029958,0.118483,0.016958,120544,9216.37,0.02097,0.003001,0.007638,0.030174,2349.84,0.005341,440041,140238,0.318694,22319.6,70034.6,73505.1,162978,51940.1,461847,171054
30.3618,310.95,310.724,1.000001,30,2069,607103.875,25987.125,41610042.375,39682.375,41584.125,0.000045,607660,0.042805,0.030054,0.030045,2587.82,2587.74,248.651,1.863819,250.515,0.096739,77.806,76.42,0.114703,0.392712,0.030843,0.118854,0.017329,120816,9488.83,0.021036,0.003067,0.007566,0.030206,2327.52,0.005346,435443,132833,0.305052,21141,69302.9,72455.7,161275,49197.3,455253,168612
33.1165,316.4125,316.233,1.000001,30,2069,608608,25140.25,41599248.75,39667.125,41575.875,0.000045,609127,0.041308,0.028559,0.028551,2581.58,2581.62,242.377,1.863819,244.241,0.09454,73.7583,72.3722,0.114703,0.393529,0.03166,0.119195,0.01767,121067,9740.05,0.021096,0.003127,0.007394,0.030281,2274.61,0.005359,424539,125797,0.296314,20021.2,67567.4,70471.3,157237,46591.5,442784,163994
35.8738,322.0625,321.748,1.000001,30,2069,610688.75,23833.25,41589100,39657.875,41578.25,0.000045,611154,0.039027,0.02628,0.026273,2573.02,2573.21,233.832,1.863819,235.695,0.091529,67.6513,66.2651,0.114703,0.394297,0.032428,0.119516,0.017991,121303,9976.3,0.021153,0.003184,0.007158,0.030383,2202.19,0.005378,409685,115182,0.281147,18331.7,65203.3,67731.2,151735,42659.9,425568,157618
38.6371,327.7375,327.274,1.000001,30,2069,612616.875,22290.625,41579262.875,39643.25,41561.375,0.000045,613022,0.036386,0.023641,0.023636,2565.18,2565.54,226.016,1.863819,227.879,0.088759,60.6765,59.2903,0.114703,0.395041,0.033172,0.119827,0.018302,121532,10205.3,0.021208,0.003239,0.006942,0.030478,2135.53,0.005394,396099,103058,0.260183,16402.2,63041,65139.8,146703,38169.6,409286,151587
[...]
536.699,139.3625,139.085,1.000001,37,2074,597270.25,12589,42186173.5,40226.125,42171,0.000044,597403,0.021078,0.008341,0.008341,3246.44,3248.05,916.576,1.863819,918.44,0.282605,27.1066,25.7251,0.140772,0.375388,0.01352,0.10063,0.000895,115486,4159.23,0.017811,0.000158,0.027259,0.029706,8385.98,0.005258,1.59643e+06,44715.2,0.02801,7116.65,254079,254179,591269,16561.2,1.59705e+06,591501
543.644,125.5,125.195,1.000001,37,2074,596029.375,12362.375,42216080.875,40268.875,42188.125,0.000044,596158,0.020741,0.008005,0.008005,3253.22,3254.84,923.745,1.863819,925.609,0.284216,26.0684,24.6872,0.140772,0.373146,0.011277,0.099684,0.001841,114796,3469.31,0.017643,0.000326,0.027414,0.029644,8433.8,0.005247,1.60889e+06,42911.1,0.026671,6829.51,256062,256153,595884,15893,1.60946e+06,596096
550.583,111.6125,111.316,1.000001,37,2074,594247.75,12293.25,42243086.25,40295.375,42217.625,0.000044,594375,0.020687,0.007951,0.007951,3262.98,3264.61,933.847,1.863819,935.711,0.286459,25.96991,24.5889,0.140772,0.371122,0.009253,0.09883,0.002695,114174,2846.58,0.017492,0.000477,0.02763,0.029555,8500.35,0.005231,1.62645e+06,42740.2,0.026278,6802.32,258857,258946,602388,15829.7,1.62701e+06,602596
557.511,97.7125,97.4604,1.000001,37,2074,592390.875,12077.625,42271477.375,40320.625,42243.625,0.000044,592514,0.020388,0.007652,0.007652,3273.23,3274.88,944.462,1.863819,946.326,0.288801,25.0718,23.691,0.140772,0.368994,0.007126,0.097932,0.003593,113519,2192.15,0.017333,0.000636,0.027856,0.029462,8569.85,0.005215,1.6449e+06,41179.5,0.025035,6553.91,261794,261876,609222,15251.7,1.64541e+06,609413
564.448,84.3125,83.5873,1.000001,37,2074,591779.875,12488.875,42297496.125,40355.625,42256.5,0.000044,591912,0.021104,0.008367,0.008367,3276.56,3278.19,948.096,1.863819,949.959,0.289617,27.4447,26.0641,0.140772,0.367046,0.005177,0.097109,0.004416,112920,1592.62,0.017187,0.000782,0.027935,0.029432,8594.05,0.005209,1.65121e+06,45304.4,0.027437,7210.42,262799,262898,611561,16779.4,1.65184e+06,611791
571.398,73.7,69.6877,1.000001,37,2074,590517.125,12601.875,42319468.375,40381.75,42279,0.000044,590652,0.02134,0.008604,0.008604,3283.55,3285.19,955.353,1.863819,957.217,0.291209,28.2803,26.8998,0.140772,0.365401,0.003532,0.096414,0.005111,112414,1086.5,0.017064,0.000905,0.028089,0.02937,8641.29,0.005198,1.66383e+06,46757.1,0.028102,7441.62,264806,264911,616233,17317.4,1.66449e+06,616476
578.318,65.2,55.8467,1.000001,37,2074,590017.5,12500.25,42336813.25,40389.125,42300.375,0.000044,590150,0.021186,0.00845,0.00845,3286.34,3287.98,958.361,1.863819,960.225,0.291875,27.7974,26.4171,0.140772,0.364102,0.002233,0.095865,0.005659,112014,687.079,0.016967,0.001002,0.028153,0.029345,8661.08,0.005194,1.66906e+06,45918,0.027511,7308.07,265639,265739,618170,17006.7,1.66969e+06,618404
585.212,58.4,42.0593,1.000001,37,2074,589058.75,12284.25,42351323,40398.25,42305.125,0.000044,589187,0.020854,0.008118,0.008117,3291.71,3293.37,963.923,1.863819,965.787,0.293086,26.7487,25.3685,0.140772,0.363016,0.001147,0.095406,0.006118,111680,353.017,0.016886,0.001083,0.02827,0.029297,8697,0.005185,1.67872e+06,44095.3,0.026267,7017.99,267177,267269,621750,16331.6,1.6793e+06,621964
586.394,57.3,39.6954,1.000001,37,2074,589205.5,12327.25,42354047.75,40409.125,42305.75,0.000044,589334,0.020922,0.008185,0.008185,3290.89,3292.54,963.128,1.863819,964.992,0.292918,26.9652,25.585,0.140772,0.362812,0.000944,0.09532,0.006205,111617,290.292,0.016871,0.001098,0.028253,0.029304,8692.03,0.005187,1.67734e+06,44471.7,0.026513,7077.89,266957,267051,621238,16471,1.67793e+06,621457