Folder: MatSci/GFBaking/data/XG/XG_Compression_Data (part 3)

File: XG_Compression_Specimen8.csv
Time sec,Extension mm,Load kgf,Compressive stress MPa,Cycle Count ,Total Cycle Count ,Repetitions Count ,Marked Data ,PIP Count ,Compressive extension mm,Compressive strain %,Compressive load kgf,Displacement (Strain 1) mm,True strain %,Corrected Position mm,True stress Pa
0,0,-0.006573745,0.0001754408,0,0,0,0,0,0,0,0.006573745,0,0,0,175.4408
1,-0.1666663,-0.01433748,0.0003826402,0,0,0,0,0,0.1666663,0.6442453,0.01433748,0,0.6463295,-0.1666663,380.175
2,-0.3333325,-0.02024097,0.0005401932,0,0,0,0,0,0.3333325,1.288491,0.02024097,0,1.296864,-0.3333325,533.2328
3,-0.4997322,-0.02606454,0.0006956133,0,0,0,0,0,0.4997322,1.931705,0.02606454,0,1.950606,-0.4997322,682.1761
4,-0.666665,-0.03166981,0.0008452073,0,0,0,0,0,0.666665,2.576981,0.03166981,0,2.610767,-0.666665,823.4265
5,-0.8334646,-0.0372988,0.0009954342,0,0,0,0,0,0.8334646,3.221742,0.03729879,0,3.274782,-0.8334646,963.3639
6,-0.9997309,-0.0417466,0.001114138,0,0,0,0,0,0.9997309,3.864441,0.0417466,0,3.941092,-0.9997309,1071.082
7,-1.166664,-0.04684833,0.001250293,0,0,0,0,0,1.166664,4.509717,0.04684833,0,4.614569,-1.166664,1193.909
8,-1.33333,-0.05101277,0.001361434,0,0,0,0,0,1.33333,5.153962,0.05101277,0,5.291527,-1.33333,1291.266
9,-1.499863,-0.05584637,0.001490434,0,0,0,0,0,1.499863,5.797692,0.05584637,0,5.972551,-1.499863,1404.023
10,-1.666663,-0.06007265,0.001603225,0,0,0,0,0,1.666663,6.442453,0.06007265,0,6.659346,-1.666663,1499.938
11,-1.833062,-0.06418329,0.00171293,0,0,0,0,0,1.833062,7.085668,0.06418329,0,7.349227,-1.833062,1591.558
12,-2.000128,-0.067763,0.001808466,0,0,0,0,0,2.000128,7.731459,0.067763,0,8.046693,-2.000128,1668.645
13,-2.166528,-0.07174058,0.00191462,0,0,0,0,0,2.166528,8.374674,0.07174058,0,8.746246,-2.166528,1754.277
14,-2.333194,-0.07633705,0.002037291,0,0,0,0,0,2.333194,9.018919,0.07633705,0,9.45186,-2.333194,1853.55
15,-2.499994,-0.07950716,0.002121896,0,0,0,0,0,2.499994,9.663679,0.07950716,0,10.16306,-2.499994,1916.842
16,-2.666527,-0.08304065,0.002216198,0,0,0,0,0,2.666527,10.30741,0.08304065,0,10.8782,-2.666527,1987.765
17,-2.833326,-0.08710596,0.002324693,0,0,0,0,0,2.833326,10.95217,0.08710596,0,11.59965,-2.833326,2070.089
18,-2.999859,-0.09182407,0.002450611,0,0,0,0,0,2.999859,11.5959,0.09182407,0,12.32518,-2.999859,2166.44
19,-3.166392,-0.09518983,0.002540436,0,0,0,0,0,3.166392,12.23963,0.09518982,0,13.05602,-3.166392,2229.496
20,-3.333325,-0.09947464,0.00265479,0,0,0,0,0,3.333325,12.88491,0.09947464,0,13.794,-3.333325,2312.723
21,-3.499991,-0.1038698,0.002772087,0,0,0,0,0,3.499991,13.52915,0.1038698,0,14.53628,-3.499991,2397.047
22,-3.666391,-0.1080898,0.002884713,0,0,0,0,0,3.666391,14.17237,0.1080898,0,15.28292,-3.666391,2475.881
23,-3.833191,-0.1127914,0.003010189,0,0,0,0,0,3.83319,14.81713,0.1127914,0,16.03698,-3.833191,2564.166
24,-3.999857,-0.1174865,0.003135492,0,0,0,0,0,3.999857,15.46137,0.1174865,0,16.79616,-3.999857,2650.702
25,-4.166523,-0.122229,0.003262061,0,0,0,0,0,4.166523,16.10562,0.122229,0,17.56115,-4.166523,2736.686
26,-4.333323,-0.126839,0.003385091,0,0,0,0,0,4.333323,16.75038,0.126839,0,18.33266,-4.333323,2818.076
27,-4.499856,-0.1311704,0.00350069,0,0,0,0,0,4.499856,17.39411,0.1311704,0,19.10892,-4.499856,2891.776
28,-4.666789,-0.136247,0.003636174,0,0,0,0,0,4.666789,18.03938,0.136247,0,19.89313,-4.666789,2980.231
29,-4.833188,-0.1412123,0.003768688,0,0,0,0,0,4.833188,18.6826,0.1412123,0,20.68101,-4.833188,3064.599
30,-4.999855,-0.1458541,0.003892571,0,0,0,0,0,4.999855,19.32685,0.1458541,0,21.47643,-4.999855,3140.259
31,-5.166654,-0.1507589,0.00402347,0,0,0,0,0,5.166654,19.9716,0.1507589,0,22.27887,-5.166654,3219.918
32,-5.333187,-0.1558599,0.004159607,0,0,0,0,0,5.333187,20.61534,0.1558599,0,23.0865,-5.333187,3302.09
33,-5.50012,-0.160363,0.004279786,0,0,0,0,0,5.50012,21.26061,0.160363,0,23.90267,-5.50012,3369.877
34,-5.666653,-0.1650243,0.004404185,0,0,0,0,0,5.666652,21.90434,0.1650243,0,24.72357,-5.666653,3439.478
35,-5.833053,-0.1695685,0.004525461,0,0,0,0,0,5.833053,22.54756,0.1695685,0,25.55061,-5.833053,3505.081
36,-5.999985,-0.1741883,0.004648756,0,0,0,0,0,5.999986,23.19283,0.1741883,0,26.38722,-5.999985,3570.578
37,-6.166785,-0.1789465,0.004775744,0,0,0,0,0,6.166785,23.83759,0.1789465,0,27.23022,-6.166785,3637.322
38,-6.333051,-0.1840967,0.004913192,0,0,0,0,0,6.333051,24.48029,0.1840967,0,28.07765,-6.333051,3710.429
39,-6.499851,-0.1888074,0.005038912,0,0,0,0,0,6.499851,25.12505,0.1888074,0,28.93508,-6.499851,3772.883
40,-6.666651,-0.1936267,0.00516753,0,0,0,0,0,6.66665,25.76981,0.1936267,0,29.79993,-6.666651,3835.867
41,-6.833183,-0.1978908,0.005281331,0,0,0,0,0,6.833183,26.41354,0.1978908,0,30.67092,-6.833183,3886.344
42,-6.999849,-0.2021221,0.005394255,0,0,0,0,0,6.999849,27.05779,0.202122,0,31.55027,-6.999849,3934.689
43,-7.166382,-0.2066925,0.005516232,0,0,0,0,0,7.166382,27.70152,0.2066925,0,32.4367,-7.166382,3988.152
44,-7.333449,-0.2107923,0.005625648,0,0,0,0,0,7.333449,28.34731,0.2107923,0,33.33395,-7.333449,4030.928
45,-7.499715,-0.2147881,0.005732289,0,0,0,0,0,7.499715,28.99001,0.2147881,0,34.23496,-7.499715,4070.498
46,-7.666515,-0.2184611,0.005830314,0,0,0,0,0,7.666515,29.63477,0.2184611,0,35.14709,-7.666515,4102.514
47,-7.833314,-0.22264,0.005941841,0,0,0,0,0,7.833314,30.27953,0.2226401,0,36.06762,-7.833314,4142.68
48,-7.999714,-0.2270872,0.006060527,0,0,0,0,0,7.999713,30.92274,0.2270872,0,36.99446,-7.999714,4186.446
49,-8.166647,-0.2308415,0.006160723,0,0,0,0,0,8.166647,31.56802,0.2308415,0,37.93299,-8.166647,4215.904
50,-8.333313,-0.2349627,0.00627071,0,0,0,0,0,8.333313,32.21227,0.2349627,0,38.87889,-8.333313,4250.772
51,-8.49958,-0.2384258,0.006363132,0,0,0,0,0,8.499579,32.85497,0.2384258,0,39.83152,-8.49958,4272.527
52,-8.666646,-0.2424362,0.006470163,0,0,0,0,0,8.666646,33.50076,0.2424362,0,40.79796,-8.666646,4302.609
53,-8.833311,-0.2465423,0.006579748,0,0,0,0,0,8.833311,34.145,0.2465423,0,41.77148,-8.833311,4333.093
54,-8.999712,-0.2507212,0.006691274,0,0,0,0,0,8.999712,34.78822,0.2507212,0,42.753,-8.999712,4363.499
55,-9.166511,-0.2544651,0.006791192,0,0,0,0,0,9.166511,35.43298,0.2544651,0,43.74664,-9.166511,4384.871
56,-9.333311,-0.2584126,0.006896544,0,0,0,0,0,9.333311,36.07774,0.2584127,0,44.75025,-9.333311,4408.427
57,-9.49971,-0.2622179,0.006998099,0,0,0,0,0,9.49971,36.72095,0.2622179,0,45.76159,-9.49971,4428.33
58,-9.66651,-0.2653892,0.007082734,0,0,0,0,0,9.66651,37.36571,0.2653892,0,46.78573,-9.66651,4436.22
59,-9.832909,-0.2687389,0.007172131,0,0,0,0,0,9.83291,38.00893,0.2687389,0,47.81798,-9.832909,4446.081
60,-10.00011,-0.2722537,0.007265936,0,0,0,0,0,10.00011,38.65523,0.2722537,0,48.86603,-10.00011,4457.271
61,-10.16651,-0.2760764,0.007367956,0,0,0,0,0,10.16651,39.29845,0.2760763,0,49.9201,-10.16651,4472.463
62,-10.33317,-0.2800871,0.007474993,0,0,0,0,0,10.33317,39.94269,0.2800871,0,50.98709,-10.33317,4489.28
63,-10.49997,-0.2842436,0.007585922,0,0,0,0,0,10.49997,40.58746,0.2842436,0,52.06648,-10.49997,4506.989
64,-10.66637,-0.2884368,0.007697832,0,0,0,0,0,10.66637,41.23067,0.2884368,0,53.15501,-10.66637,4523.964
65,-10.83344,-0.2927468,0.007812858,0,0,0,0,0,10.83344,41.87646,0.2927468,0,54.25995,-10.83344,4541.11
66,-10.99984,-0.2969289,0.007924469,0,0,0,0,0,10.99984,42.51968,0.2969289,0,55.37275,-10.99984,4555.01
67,-11.16624,-0.3016878,0.008051476,0,0,0,0,0,11.16624,43.16289,0.3016877,0,56.49807,-11.16624,4576.226
68,-11.33331,-0.3066355,0.008183519,0,0,0,0,0,11.3333,43.80868,0.3066354,0,57.64078,-11.33331,4598.428
69,-11.49997,-0.3115118,0.00831366,0,0,0,0,0,11.49997,44.45293,0.3115118,0,58.79394,-11.49997,4617.995
70,-11.66624,-0.3159118,0.008431086,0,0,0,0,0,11.66624,45.09563,0.3159118,0,59.95772,-11.66624,4629.035
71,-11.83317,-0.3214494,0.008578877,0,0,0,0,0,11.83317,45.7409,0.3214494,0,61.13995,-11.83317,4654.821
72,-11.99984,-0.3266886,0.0087187,0,0,0,0,0,11.99984,46.38515,0.3266886,0,62.3344,-11.99984,4674.518
73,-12.1665,-0.3314969,0.008847023,0,0,0,0,0,12.1665,47.02939,0.3314969,0,63.5433,-12.1665,4686.322
74,-12.33317,-0.3370917,0.00899634,0,0,0,0,0,12.33317,47.67364,0.3370917,0,64.76698,-12.33317,4707.457
75,-12.49984,-0.3446492,0.009198035,0,0,0,0,0,12.49984,48.31788,0.3446492,0,66.00584,-12.49984,4753.739
76,-12.66677,-0.3518901,0.009391282,0,0,0,0,0,12.66677,48.96316,0.3518901,0,67.26224,-12.66677,4793.013
77,-12.83317,-0.3586463,0.00957159,0,0,0,0,0,12.83317,49.60637,0.3586463,0,68.53055,-12.83317,4823.471
78,-12.99983,-0.3656562,0.009758671,0,0,0,0,0,12.99983,50.25062,0.3656562,0,69.81721,-12.99983,4854.879
79,-13.1665,-0.3733039,0.009962773,0,0,0,0,0,13.1665,50.89486,0.3733039,0,71.12065,-13.1665,4892.233
80,-13.33303,-0.3822645,0.01020192,0,0,0,0,0,13.33303,51.53859,0.3822646,0,72.44024,-13.33303,4943.993
81.00001,-13.49997,-0.3905873,0.01042404,0,0,0,0,0,13.49997,52.18387,0.3905873,0,73.78071,-13.49997,4984.371
82.00001,-13.66637,-0.4004012,0.01068595,0,0,0,0,0,13.66637,52.82708,0.4004012,0,75.13502,-13.66637,5040.874
83.00001,-13.83303,-0.4091844,0.01092036,0,0,0,0,0,13.83303,53.47133,0.4091844,0,76.51015,-13.83303,5081.097
84.00001,-13.99997,-0.4189914,0.01118209,0,0,0,0,0,13.99997,54.11661,0.4189914,0,77.90669,-13.99997,5130.721
85.00001,-14.16677,-0.4293283,0.01145796,0,0,0,0,0,14.16677,54.76137,0.4293283,0,79.32188,-14.16677,5183.425
86.00001,-14.33303,-0.4398921,0.01173989,0,0,0,0,0,14.33303,55.40407,0.4398921,0,80.75275,-14.33303,5235.512
87.00001,-14.49983,-0.4516671,0.01205414,0,0,0,0,0,14.49983,56.04882,0.4516671,0,82.20908,-14.49983,5297.936
88.00001,-14.66663,-0.4632578,0.01236347,0,0,0,0,0,14.66663,56.69359,0.4632578,0,83.68694,-14.66663,5354.176
89.00001,-14.8333,-0.4746643,0.01266789,0,0,0,0,0,14.8333,57.33783,0.4746643,0,85.18576,-14.8333,5404.398
90.00001,-14.99983,-0.4861134,0.01297345,0,0,0,0,0,14.99983,57.98156,0.4861134,0,86.70617,-14.99983,5451.24
90.03001,-15.0049,-0.4870673,0.0129989,0,0,0,0,0,15.0049,58.00115,0.4870673,0,86.75279,-15.0049,5459.39