Folder: MatSci/GFBaking/data/XG/XG_Compression_Data (part 2)

File: XG_Compression_Specimen4.csv
Time sec,Extension mm,Load kgf,Compressive stress MPa,Cycle Count ,Total Cycle Count ,Repetitions Count ,Marked Data ,PIP Count ,Compressive extension mm,Compressive strain %,Compressive load kgf,Displacement (Strain 1) mm,True strain %,Corrected Position mm,True stress Pa
0,-0.000266666,-0.03197981,0.0008646371,0,0,0,0,0,0,0,0.03197981,0,0,-0.000266666,864.6371
1,-0.1667996,-0.05186466,0.001402263,0,0,0,0,0,0.1665329,0.6437299,0.05186466,0,0.6458108,-0.1667996,1393.236
2,-0.3337325,-0.06765538,0.001829196,0,0,0,0,0,0.3334658,1.289006,0.06765538,0,1.297386,-0.3337325,1805.618
3,-0.5001321,-0.08303037,0.002244889,0,0,0,0,0,0.4998654,1.93222,0.08303037,0,1.951132,-0.5001321,2201.513
4,-0.666665,-0.09725884,0.002629584,0,0,0,0,0,0.6663984,2.57595,0.09725884,0,2.609709,-0.666665,2561.847
5,-0.833598,-0.111826,0.003023435,0,0,0,0,0,0.8333313,3.221226,0.111826,0,3.27425,-0.833598,2926.044
6,-1.000398,-0.1263421,0.003415906,0,0,0,0,0,1.000131,3.865987,0.1263421,0,3.9427,-1.000398,3283.848
7,-1.166797,-0.1405839,0.003800962,0,0,0,0,0,1.16653,4.509202,0.1405839,0,4.614029,-1.166797,3629.569
8,-1.333197,-0.1550147,0.004191128,0,0,0,0,0,1.33293,5.152416,0.1550147,0,5.289896,-1.333197,3975.183
9,-1.50013,-0.1695047,0.004582893,0,0,0,0,0,1.499863,5.797692,0.1695047,0,5.972551,-1.50013,4317.191
10,-1.667063,-0.1836631,0.004965692,0,0,0,0,0,1.666796,6.442968,0.1836631,0,6.659897,-1.667063,4645.754
11,-1.833196,-0.1967093,0.005318424,0,0,0,0,0,1.832929,7.085152,0.1967093,0,7.348673,-1.833196,4941.605
12,-2.000128,-0.2107109,0.005696984,0,0,0,0,0,1.999862,7.730428,0.2107109,0,8.045577,-2.000128,5256.583
13,-2.166795,-0.2240172,0.006056746,0,0,0,0,0,2.166528,8.374674,0.2240172,0,8.746246,-2.166795,5549.514
14,-2.333461,-0.2360379,0.00638175,0,0,0,0,0,2.333194,9.018919,0.2360379,0,9.45186,-2.333461,5806.185
15,-2.50026,-0.2486729,0.00672336,0,0,0,0,0,2.499994,9.663679,0.2486729,0,10.16306,-2.50026,6073.636
16,-2.666527,-0.2604619,0.007042101,0,0,0,0,0,2.66626,10.30638,0.2604619,0,10.87705,-2.666527,6316.315
17,-2.833593,-0.2720279,0.00735481,0,0,0,0,0,2.833327,10.95217,0.2720279,0,11.59966,-2.833593,6549.299
18,-3.000393,-0.281748,0.007617611,0,0,0,0,0,3.000126,11.59693,0.281748,0,12.32635,-3.000393,6734.202
19,-3.166792,-0.2909798,0.007867211,0,0,0,0,0,3.166525,12.24014,0.2909798,0,13.0566,-3.166792,6904.253
20,-3.333192,-0.2998945,0.008108237,0,0,0,0,0,3.332925,12.88336,0.2998945,0,13.79223,-3.333192,7063.623
21,-3.500391,-0.3086232,0.008344236,0,0,0,0,0,3.500125,13.52967,0.3086232,0,14.53688,-3.500391,7215.289
22,-3.666924,-0.3165499,0.00855855,0,0,0,0,0,3.666657,14.1734,0.3165499,0,15.28412,-3.666924,7345.513
23,-3.833591,-0.3243574,0.008769642,0,0,0,0,0,3.833324,14.81764,0.3243575,0,16.03758,-3.833591,7470.188
24,-3.999857,-0.3310156,0.008949658,0,0,0,0,0,3.99959,15.46034,0.3310156,0,16.79494,-3.999857,7566.01
25,-4.16679,-0.3377073,0.009130581,0,0,0,0,0,4.166523,16.10562,0.3377073,0,17.56115,-4.16679,7660.045
26,-4.333723,-0.3433945,0.009284347,0,0,0,0,0,4.333457,16.75089,0.3433945,0,18.33328,-4.333723,7729.136
27,-4.499856,-0.348398,0.009419625,0,0,0,0,0,4.499589,17.39308,0.348398,0,19.10767,-4.499856,7781.262
28,-4.666789,-0.353044,0.00954524,0,0,0,0,0,4.666522,18.03835,0.353044,0,19.89188,-4.666789,7823.436
29,-4.833455,-0.3566624,0.009643069,0,0,0,0,0,4.833188,18.6826,0.3566624,0,20.68101,-4.833455,7841.493
30,-5.000121,-0.3594234,0.009717719,0,0,0,0,0,4.999854,19.32684,0.3594234,0,21.47643,-5.000121,7839.59
31,-5.166921,-0.3618856,0.00978429,0,0,0,0,0,5.166655,19.97161,0.3618856,0,22.27887,-5.166921,7830.21
32,-5.333187,-0.3631959,0.009819716,0,0,0,0,0,5.33292,20.6143,0.3631959,0,23.0852,-5.333187,7795.45
33,-5.50012,-0.3644151,0.009852679,0,0,0,0,0,5.499853,21.25958,0.3644151,0,23.90136,-5.50012,7758.041
34,-5.66692,-0.3660148,0.009895931,0,0,0,0,0,5.666653,21.90434,0.3660148,0,24.72357,-5.66692,7728.293
35,-5.833586,-0.3684189,0.009960931,0,0,0,0,0,5.833319,22.54859,0.3684189,0,25.55194,-5.833586,7714.881
36,-5.999852,-0.3704803,0.01001666,0,0,0,0,0,5.999585,23.19128,0.3704803,0,26.38521,-5.999852,7693.672
37,-6.166918,-0.3735817,0.01010051,0,0,0,0,0,6.166651,23.83708,0.3735816,0,27.22954,-6.166918,7692.848
38,-6.333584,-0.3765229,0.01018004,0,0,0,0,0,6.333318,24.48132,0.376523,0,28.07901,-6.333584,7687.831
39,-6.500117,-0.3795416,0.01026165,0,0,0,0,0,6.499851,25.12505,0.3795416,0,28.93508,-6.500117,7683.409
40,-6.666517,-0.3832249,0.01036124,0,0,0,0,0,6.66625,25.76826,0.3832249,0,29.79784,-6.666517,7691.328
41,-6.83345,-0.3860768,0.01043835,0,0,0,0,0,6.833183,26.41354,0.3860768,0,30.67092,-6.83345,7681.208
42,-7.000383,-0.388526,0.01050457,0,0,0,0,0,7.000117,27.05882,0.388526,0,31.55168,-7.000383,7662.154
43,-7.166649,-0.3912125,0.0105772,0,0,0,0,0,7.166382,27.70152,0.3912125,0,32.4367,-7.166649,7647.155
44,-7.333449,-0.3940518,0.01065396,0,0,0,0,0,7.333182,28.34628,0.3940518,0,33.33251,-7.333449,7633.962
45,-7.500115,-0.3977808,0.01075479,0,0,0,0,0,7.499848,28.99052,0.3977808,0,34.23568,-7.500115,7636.917
46,-7.666915,-0.4013731,0.01085191,0,0,0,0,0,7.666648,29.63528,0.4013731,0,35.14782,-7.666915,7635.917
47,-7.833447,-0.4044404,0.01093484,0,0,0,0,0,7.833181,30.27901,0.4044404,0,36.06688,-7.833447,7623.879
48,-7.999848,-0.4077171,0.01102343,0,0,0,0,0,7.999581,30.92223,0.4077171,0,36.99372,-7.999848,7614.741
49,-8.166781,-0.4106588,0.01110297,0,0,0,0,0,8.166514,31.56751,0.4106588,0,37.93224,-8.166781,7598.038
50,-8.333713,-0.413624,0.01118314,0,0,0,0,0,8.333447,32.21278,0.413624,0,38.87965,-8.333713,7580.738
51,-8.500113,-0.4174043,0.01128535,0,0,0,0,0,8.499846,32.856,0.4174043,0,39.83306,-8.500113,7577.433
52,-8.666646,-0.4215218,0.01139667,0,0,0,0,0,8.666379,33.49973,0.4215218,0,40.79641,-8.666646,7578.817
53,-8.833579,-0.4253312,0.01149966,0,0,0,0,0,8.833312,34.145,0.4253312,0,41.77149,-8.833579,7573.104
54,-9.000111,-0.4290353,0.01159981,0,0,0,0,0,8.999845,34.78873,0.4290353,0,42.75379,-9.000111,7564.386
55,-9.166778,-0.4328737,0.01170359,0,0,0,0,0,9.166512,35.43298,0.4328738,0,43.74664,-9.166778,7556.661
56,-9.333177,-0.4365611,0.01180329,0,0,0,0,0,9.332911,36.07619,0.4365611,0,44.74783,-9.333177,7545.112
57,-9.500244,-0.4401055,0.01189912,0,0,0,0,0,9.499977,36.72198,0.4401055,0,45.76322,-9.500244,7529.526
58,-9.667044,-0.442738,0.01197029,0,0,0,0,0,9.666778,37.36674,0.442738,0,46.78738,-9.667044,7497.384
59,-9.833443,-0.4459828,0.01205802,0,0,0,0,0,9.833177,38.00996,0.4459828,0,47.81965,-9.833443,7474.773
60,-10.00011,-0.4485758,0.01212813,0,0,0,0,0,9.999843,38.6542,0.4485758,0,48.86435,-10.00011,7440.098
61,-10.16678,-0.4508766,0.01219034,0,0,0,0,0,10.16651,39.29845,0.4508766,0,49.9201,-10.16678,7399.723
62,-10.33344,-0.453751,0.01226805,0,0,0,0,0,10.33317,39.94269,0.453751,0,50.98709,-10.33344,7367.862
63,-10.50037,-0.4568384,0.01235153,0,0,0,0,0,10.50011,40.58797,0.4568384,0,52.06735,-10.50037,7338.292
64,-10.66651,-0.4596801,0.01242836,0,0,0,0,0,10.66624,41.23015,0.4596801,0,53.15412,-10.66651,7304.126
65,-10.83357,-0.4632634,0.01252524,0,0,0,0,0,10.83331,41.87595,0.4632634,0,54.25906,-10.83357,7280.176
66,-11.00037,-0.4670249,0.01262694,0,0,0,0,0,11.00011,42.52071,0.4670249,0,55.37454,-11.00037,7257.874
67,-11.16677,-0.4709659,0.01273349,0,0,0,0,0,11.16651,43.16392,0.4709659,0,56.49989,-11.16677,7237.216
68,-11.33331,-0.4750209,0.01284313,0,0,0,0,0,11.33304,43.80765,0.4750209,0,57.63895,-11.33331,7216.854
69,-11.50037,-0.4801048,0.01298058,0,0,0,0,0,11.5001,44.45344,0.4801048,0,58.79486,-11.50037,7210.264
70,-11.66691,-0.4854034,0.01312384,0,0,0,0,0,11.66664,45.09717,0.4854034,0,59.96054,-11.66691,7205.357
71,-11.83344,-0.4917013,0.01329411,0,0,0,0,0,11.83317,45.7409,0.4917012,0,61.13995,-11.83344,7213.265
72,-11.99997,-0.498875,0.01348807,0,0,0,0,0,11.9997,46.38463,0.498875,0,62.33343,-11.99997,7231.677
73,-12.1669,-0.5064613,0.01369318,0,0,0,0,0,12.16664,47.02991,0.5064613,0,63.54427,-12.1669,7253.288
74,-12.3337,-0.5143697,0.013907,0,0,0,0,0,12.33344,47.67467,0.5143697,0,64.76896,-12.3337,7276.882
75,-12.5001,-0.5228212,0.0141355,0,0,0,0,0,12.49984,48.31788,0.5228212,0,66.00584,-12.5001,7305.526
76,-12.6669,-0.5317799,0.01437772,0,0,0,0,0,12.66664,48.96264,0.5317799,0,67.26123,-12.6669,7338.007
77,-12.83344,-0.5423173,0.01466261,0,0,0,0,0,12.83317,49.60637,0.5423173,0,68.53055,-12.83344,7389.023
78,-13.0001,-0.5540246,0.01497914,0,0,0,0,0,12.99983,50.25062,0.5540246,0,69.81721,-13.0001,7452.032
79,-13.1669,-0.5656702,0.01529401,0,0,0,0,0,13.16664,50.89538,0.5656702,0,71.12171,-13.1669,7510.064
80,-13.3333,-0.5776779,0.01561866,0,0,0,0,0,13.33303,51.53859,0.5776779,0,72.44024,-13.3333,7569.022
81.00001,-13.50023,-0.5910509,0.01598022,0,0,0,0,0,13.49997,52.18387,0.5910509,0,73.78072,-13.50023,7641.124
82.00001,-13.66703,-0.6057866,0.01637863,0,0,0,0,0,13.66677,52.82863,0.6057866,0,75.1383,-13.66703,7726.026
83.00001,-13.83343,-0.6210747,0.01679198,0,0,0,0,0,13.83317,53.47184,0.6210747,0,76.51126,-13.83343,7812.997
84.00001,-14.0001,-0.6374681,0.0172352,0,0,0,0,0,13.99983,54.11609,0.6374681,0,77.90556,-14.0001,7908.186
85.00001,-14.1669,-0.6555156,0.01772315,0,0,0,0,0,14.16663,54.76085,0.6555156,0,79.32074,-14.1669,8017.804
86.00001,-14.33356,-0.6744414,0.01823485,0,0,0,0,0,14.3333,55.40509,0.6744414,0,80.75505,-14.33356,8131.815
87.00001,-14.50023,-0.6945208,0.01877774,0,0,0,0,0,14.49996,56.04934,0.6945208,0,82.21026,-14.50023,8252.938
88.00001,-14.66663,-0.7155545,0.01934642,0,0,0,0,0,14.66636,56.69255,0.7155545,0,83.68456,-14.66663,8378.442
89.00001,-14.83343,-0.7382972,0.01996132,0,0,0,0,0,14.83316,57.33732,0.7382972,0,85.18456,-14.83343,8516.034
90.00001,-15.00036,-0.7613977,0.02058588,0,0,0,0,0,15.0001,57.98259,0.7613977,0,86.70861,-15.00036,8649.655
90.3,-15.04996,-0.7680784,0.02076651,0,0,0,0,0,15.0497,58.17432,0.7680784,0,87.16597,-15.04996,8685.734

File: XG_Compression_Specimen5.csv
Time sec,Extension mm,Load kgf,Compressive stress MPa,Cycle Count ,Total Cycle Count ,Repetitions Count ,Marked Data ,PIP Count ,Compressive extension mm,Compressive strain %,Compressive load kgf,Displacement (Strain 1) mm,True strain %,Corrected Position mm,True stress Pa
0,0.000133333,-0.008662446,0.0002704029,0,0,0,0,0,0,0,0.008662445,0,0,0.000133333,270.4029
0.9500001,-0.158133,-0.01653492,0.0005161464,0,0,0,0,0,0.1582663,0.6857291,0.01653492,0,0.688091,-0.158133,512.607
1.9,-0.3165326,-0.02361021,0.0007370053,0,0,0,0,0,0.3166659,1.372036,0.02361021,0,1.381535,-0.3165326,726.8933
2.85,-0.4749322,-0.02945464,0.0009194424,0,0,0,0,0,0.4750655,2.058343,0.02945464,0,2.079822,-0.4749322,900.5171
3.8,-0.6329318,-0.03510771,0.001095906,0,0,0,0,0,0.633065,2.742916,0.03510771,0,2.781237,-0.6329318,1065.846
4.75,-0.7911981,-0.04022558,0.001255663,0,0,0,0,0,0.7913314,3.428646,0.04022558,0,3.488803,-0.7911981,1212.611
5.7,-0.9498643,-0.04629837,0.001445228,0,0,0,0,0,0.9499977,4.116108,0.04629837,0,4.203218,-0.9498643,1385.741
6.65,-1.108397,-0.05193658,0.001621228,0,0,0,0,0,1.108531,4.802992,0.05193658,0,4.922168,-1.108397,1543.361
7.6,-1.266397,-0.05699396,0.001779097,0,0,0,0,0,1.26653,5.487566,0.05699396,0,5.643879,-1.266397,1681.468
8.55,-1.424797,-0.0625548,0.001952682,0,0,0,0,0,1.42493,6.173873,0.0625548,0,6.372683,-1.424797,1832.126
9.5,-1.58293,-0.06803933,0.002123884,0,0,0,0,0,1.583063,6.859025,0.06803934,0,7.105597,-1.58293,1978.207
10.45,-1.741462,-0.07291338,0.00227603,0,0,0,0,0,1.741596,7.545908,0.07291339,0,7.845797,-1.741462,2104.283
11.4,-1.900129,-0.07787501,0.00243091,0,0,0,0,0,1.900262,8.233371,0.077875,0,8.592147,-1.900129,2230.764
12.35,-2.058128,-0.08237226,0.002571295,0,0,0,0,0,2.058262,8.917945,0.08237226,0,9.340939,-2.058128,2341.988
13.3,-2.216261,-0.08737479,0.002727451,0,0,0,0,0,2.216395,9.603097,0.08737478,0,10.09602,-2.216261,2465.531
14.25,-2.374794,-0.0920538,0.002873509,0,0,0,0,0,2.374928,10.28998,0.0920538,0,10.85877,-2.374794,2577.825
15.2,-2.533194,-0.0974067,0.003040602,0,0,0,0,0,2.533327,10.97629,0.0974067,0,11.62674,-2.533194,2706.857
16.15,-2.69146,-0.1025193,0.003200195,0,0,0,0,0,2.691593,11.66202,0.1025193,0,12.4,-2.69146,2826.988
17.1,-2.84986,-0.1080881,0.003374027,0,0,0,0,0,2.849993,12.34832,0.1080881,0,13.17994,-2.84986,2957.391
18.05,-3.008126,-0.1140717,0.003560811,0,0,0,0,0,3.00826,13.03405,0.1140717,0,13.96536,-3.008126,3096.693
19,-3.166392,-0.1204422,0.003759668,0,0,0,0,0,3.166525,13.71978,0.1204422,0,14.75698,-3.166392,3243.85
19.95,-3.324925,-0.1268292,0.003959042,0,0,0,0,0,3.325058,14.40667,0.1268292,0,15.55628,-3.324925,3388.676
20.9,-3.483058,-0.1335636,0.004169261,0,0,0,0,0,3.483191,15.09182,0.1335636,0,16.35997,-3.483058,3540.043
21.85,-3.641591,-0.1403682,0.004381668,0,0,0,0,0,3.641725,15.7787,0.1403682,0,17.17224,-3.641591,3690.298
22.8,-3.799991,-0.1473787,0.004600505,0,0,0,0,0,3.800124,16.46501,0.1473787,0,17.99046,-3.799991,3843.032
23.75,-3.957857,-0.1545268,0.004823636,0,0,0,0,0,3.95799,17.149,0.1545268,0,18.81264,-3.957857,3996.431
24.7,-4.116524,-0.1625772,0.005074935,0,0,0,0,0,4.116657,17.83647,0.1625772,0,19.64586,-4.116524,4169.746
25.65,-4.274923,-0.1698573,0.005302187,0,0,0,0,0,4.275056,18.52277,0.1698573,0,20.48466,-4.274923,4320.075
26.6,-4.433189,-0.1776091,0.005544163,0,0,0,0,0,4.433322,19.2085,0.1776091,0,21.32984,-4.433189,4479.213
27.55,-4.591722,-0.1852682,0.005783247,0,0,0,0,0,4.591856,19.89539,0.1852682,0,22.18368,-4.591722,4632.648
28.5,-4.749722,-0.1911478,0.005966783,0,0,0,0,0,4.749855,20.57996,0.1911478,0,23.04195,-4.749722,4738.821
29.45,-4.907988,-0.1980459,0.00618211,0,0,0,0,0,4.908121,21.26569,0.1980459,0,23.90912,-4.907988,4867.442
30.4,-5.066521,-0.2056173,0.006418455,0,0,0,0,0,5.066655,21.95258,0.2056173,0,24.78535,-5.066521,5009.439
31.35,-5.224921,-0.211554,0.006603771,0,0,0,0,0,5.225054,22.63888,0.211554,0,25.66859,-5.224921,5108.751
32.3,-5.383054,-0.2179364,0.006803,0,0,0,0,0,5.383187,23.32403,0.2179364,0,26.55819,-5.383054,5216.266
33.25,-5.541453,-0.2232922,0.006970185,0,0,0,0,0,5.541586,24.01034,0.2232922,0,27.45729,-5.541453,5296.62
34.2,-5.699853,-0.2294866,0.007163548,0,0,0,0,0,5.699986,24.69665,0.2294866,0,28.36455,-5.699853,5394.392
35.15,-5.857986,-0.2358004,0.007360637,0,0,0,0,0,5.858119,25.3818,0.2358004,0,29.27857,-5.857986,5492.374
36.1,-6.016652,-0.2422952,0.007563374,0,0,0,0,0,6.016786,26.06926,0.2422952,0,30.20415,-6.016652,5591.658
37.05,-6.174918,-0.2471283,0.007714243,0,0,0,0,0,6.175051,26.75499,0.2471283,0,31.136,-6.174918,5650.298
38,-6.333051,-0.2521287,0.007870334,0,0,0,0,0,6.333185,27.44014,0.2521288,0,32.07583,-6.333051,5710.703
38.95,-6.491584,-0.2571576,0.008027311,0,0,0,0,0,6.491717,28.12703,0.2571576,0,33.02699,-6.491584,5769.468
39.9,-6.649717,-0.2621143,0.008182039,0,0,0,0,0,6.64985,28.81218,0.2621143,0,33.98484,-6.649717,5824.615
40.85,-6.807983,-0.2660445,0.008304723,0,0,0,0,0,6.808116,29.49791,0.2660445,0,34.95278,-6.807983,5855.004
41.8,-6.96665,-0.270752,0.008451669,0,0,0,0,0,6.966783,30.18537,0.270752,0,35.93266,-6.96665,5900.502
42.75,-7.124916,-0.2758623,0.008611188,0,0,0,0,0,7.125049,30.8711,0.2758623,0,36.91972,-7.124916,5952.82
43.7,-7.282916,-0.2795987,0.008727824,0,0,0,0,0,7.283049,31.55567,0.2795987,0,37.91495,-7.282916,5973.701
44.65,-7.441449,-0.2847854,0.008889728,0,0,0,0,0,7.441582,32.24256,0.2847854,0,38.92359,-7.441449,6023.453
45.6,-7.599715,-0.290109,0.009055907,0,0,0,0,0,7.599848,32.92828,0.2901089,0,39.94077,-7.599715,6073.952
46.55,-7.758114,-0.2959134,0.009237096,0,0,0,0,0,7.758248,33.61459,0.2959134,0,40.96929,-7.758114,6132.084
47.5,-7.916781,-0.3033747,0.009470004,0,0,0,0,0,7.916914,34.30206,0.3033747,0,42.01025,-7.916781,6221.598
48.45,-8.074647,-0.3100202,0.009677446,0,0,0,0,0,8.07478,34.98605,0.3100202,0,43.05683,-8.074647,6291.69
49.4,-8.233047,-0.3141618,0.009806731,0,0,0,0,0,8.23318,35.67236,0.3141618,0,44.11808,-8.233047,6308.439
50.35,-8.39158,-0.3193655,0.009969164,0,0,0,0,0,8.391713,36.35924,0.3193654,0,45.19161,-8.39158,6344.452
51.3,-8.549846,-0.3261647,0.01018141,0,0,0,0,0,8.549979,37.04497,0.3261647,0,46.27495,-8.549846,6409.708
52.25,-8.708245,-0.3344262,0.01043929,0,0,0,0,0,8.708379,37.73128,0.3344262,0,47.3711,-8.708245,6500.414
53.2,-8.866645,-0.3432511,0.01071477,0,0,0,0,0,8.866779,38.41759,0.3432511,0,48.47939,-8.866645,6598.413
54.15,-9.024511,-0.354565,0.01106794,0,0,0,0,0,9.024644,39.10158,0.354565,0,49.59629,-9.024511,6740.198
55.1,-9.183045,-0.3650822,0.01139624,0,0,0,0,0,9.183179,39.78847,0.3650822,0,50.73063,-9.183045,6861.848
56.05,-9.341577,-0.375878,0.01173323,0,0,0,0,0,9.34171,40.47535,0.3758779,0,51.87796,-9.341577,6984.166
57,-9.499843,-0.3865203,0.01206544,0,0,0,0,0,9.499976,41.16108,0.3865203,0,53.03666,-9.499843,7099.173
57.95,-9.658244,-0.3969889,0.01239222,0,0,0,0,0,9.658377,41.84739,0.3969889,0,54.20994,-9.658244,7206.401
58.9,-9.816643,-0.4085382,0.01275274,0,0,0,0,0,9.816776,42.53369,0.4085382,0,55.39714,-9.816643,7328.529
59.85,-9.974909,-0.4189034,0.01307629,0,0,0,0,0,9.975042,43.21942,0.4189034,0,56.59758,-9.974909,7424.795
60.8,-10.13304,-0.426666,0.01331861,0,0,0,0,0,10.13317,43.90457,0.426666,0,57.81159,-10.13304,7471.13
61.75,-10.29158,-0.4355355,0.01359548,0,0,0,0,0,10.29171,44.59146,0.4355356,0,59.04364,-10.29158,7533.055
62.7,-10.44997,-0.4471625,0.01395842,0,0,0,0,0,10.45011,45.27776,0.4471625,0,60.29001,-10.44997,7638.358
63.65,-10.60824,-0.4591182,0.01433162,0,0,0,0,0,10.60837,45.96349,0.4591182,0,61.55103,-10.60824,7744.308
64.60001,-10.76637,-0.4724069,0.01474643,0,0,0,0,0,10.76651,46.64864,0.4724069,0,62.82708,-10.76637,7867.423
65.55,-10.92451,-0.4859584,0.01516945,0,0,0,0,0,10.92464,47.3338,0.4859585,0,64.11962,-10.92451,7989.176
66.5,-11.08331,-0.4990341,0.01557762,0,0,0,0,0,11.08344,48.02184,0.4990341,0,65.43466,-11.08331,8096.959
67.45001,-11.24157,-0.5129844,0.01601308,0,0,0,0,0,11.24171,48.70757,0.5129844,0,66.76269,-11.24157,8213.5
68.4,-11.39984,-0.5269012,0.0164475,0,0,0,0,0,11.39997,49.3933,0.5269012,0,68.10861,-11.39984,8323.54
69.35001,-11.55811,-0.5413892,0.01689976,0,0,0,0,0,11.55824,50.07902,0.5413892,0,69.47289,-11.55811,8436.523
70.3,-11.71637,-0.5581497,0.01742294,0,0,0,0,0,11.71651,50.76475,0.5581498,0,70.85604,-11.71637,8578.23
71.25,-11.87477,-0.5727223,0.01787783,0,0,0,0,0,11.8749,51.45106,0.5727223,0,72.25978,-11.87477,8679.5
72.20001,-12.03344,-0.5905301,0.01843371,0,0,0,0,0,12.03357,52.13852,0.5905302,0,73.68593,-12.03344,8822.648
73.15,-12.19157,-0.6067278,0.01893933,0,0,0,0,0,12.1917,52.82367,0.6067278,0,75.12779,-12.19157,8934.883
74.10001,-12.34957,-0.6262114,0.01954753,0,0,0,0,0,12.3497,53.50825,0.6262114,0,76.58952,-12.34957,9087.987
75.05,-12.5081,-0.6461011,0.02016839,0,0,0,0,0,12.50824,54.19513,0.6461011,0,78.07798,-12.5081,9238.106
76,-12.6665,-0.6680157,0.02085247,0,0,0,0,0,12.66664,54.88144,0.6680157,0,79.58764,-12.6665,9408.335
76.95001,-12.8245,-0.688421,0.02148943,0,0,0,0,0,12.82463,55.56601,0.688421,0,81.11655,-12.8245,9548.612
77.9,-12.9833,-0.711649,0.02221451,0,0,0,0,0,12.98343,56.25405,0.711649,0,82.67712,-12.9833,9717.946
78.85001,-13.14143,-0.735132,0.02294754,0,0,0,0,0,13.14157,56.9392,0.735132,0,84.25572,-13.14143,9881.394
79.8,-13.2997,-0.7589848,0.02369212,0,0,0,0,0,13.29983,57.62493,0.7589847,0,85.861,-13.2997,10039.55
80.75001,-13.45823,-0.7856306,0.02452388,0,0,0,0,0,13.45837,58.31182,0.7856306,0,87.49525,-13.45823,10223.56
81.70001,-13.6165,-0.8112431,0.02532339,0,0,0,0,0,13.61663,58.99755,0.8112431,0,89.15383,-13.6165,10383.21
82.65,-13.77477,-0.8376728,0.02614841,0,0,0,0,0,13.7749,59.68327,0.8376728,0,90.84038,-13.77477,10542.18
83.60001,-13.9333,-0.8668243,0.02705839,0,0,0,0,0,13.93343,60.37016,0.8668243,0,92.55877,-13.9333,10723.2
84.55,-14.09143,-0.89782,0.02802593,0,0,0,0,0,14.09157,61.05531,0.89782,0,94.30277,-14.09143,10914.61
85.50001,-14.2497,-0.9295141,0.02901528,0,0,0,0,0,14.24983,61.74104,0.9295141,0,96.07923,-14.2497,11100.95
86.45001,-14.40823,-0.9631085,0.03006395,0,0,0,0,0,14.40837,62.42793,0.9631085,0,97.89091,-14.40823,11295.65
87.4,-14.5665,-0.9983359,0.03116359,0,0,0,0,0,14.56663,63.11366,0.9983359,0,99.73288,-14.5665,11495.11
88.35001,-14.72503,-1.035065,0.03231012,0,0,0,0,0,14.72516,63.80054,1.035065,0,101.6126,-14.72503,11696.09
89.25001,-14.87476,-1.07073,0.0334234,0,0,0,0,0,14.8749,64.4493,1.07073,0,103.421,-14.87476,11882.26