Folder: MatSci/GFBaking/em (part 5)

File: 1_g13_8.csv
,Time sec,Extension mm,Load kgf,Compressive stress MPa,Cycle Count ,Total Cycle Count ,Repetitions Count ,Marked Data ,PIP Count ,Compressive extension mm,Compressive strain %,Compressive load kgf,Displacement (Strain 1) mm,True strain %,Corrected Position mm,True stress Pa,Elastic Modulus
0,0.0,-0.000133333,-0.02960821,0.0007708231,0,0,0,0,0,0.0,0.0,0.02960821,0,0.0,-0.000133333,770.8231,inf
22,1.1,-0.1835995,-0.04082322,0.001062796,0,0,0,0,0,0.1834662,0.8569183,0.04082322,0,0.860611,-0.1835995,1053.689,159941
44,2.2,-0.3670658,-0.04883817,0.001271458,0,0,0,0,0,0.3669324,1.713837,0.04883817,0,1.728693,-0.3670658,1249.667,95671.1
66,3.3,-0.5499987,-0.05572355,0.001450712,0,0,0,0,0,0.5498653,2.568264,0.05572354,0,2.60182,-0.5499987,1413.454,72843.3
88,4.4,-0.7333315,-0.06320448,0.001645472,0,0,0,0,0,0.7331982,3.42456,0.06320448,0,3.484572,-0.7333315,1589.122,61963.2
110,5.5,-0.9167978,-0.06941433,0.00180714,0,0,0,0,0,0.9166644,4.281478,0.06941433,0,4.375836,-0.9167978,1729.767,54431
132,6.6,-1.100131,-0.07656004,0.001993172,0,0,0,0,0,1.099997,5.137774,0.07656004,0,5.274459,-1.100131,1890.767,50028.6
154,7.7,-1.28373,-0.08244136,0.002146286,0,0,0,0,0,1.283597,5.995315,0.08244136,0,6.182557,-1.28373,2017.61,46166.2
176,8.8,-1.466796,-0.08819069,0.002295965,0,0,0,0,0,1.466663,6.850365,0.0881907,0,7.0963,-1.466796,2138.683,43221.5
198,9.900001,-1.649996,-0.09314096,0.002424841,0,0,0,0,0,1.649863,7.706038,0.09314096,0,8.019146,-1.649996,2237.982,40578.9
220,11.0,-1.833596,-0.09896905,0.00257657,0,0,0,0,0,1.833462,8.563579,0.09896906,0,8.95263,-1.833596,2355.924,38800.3
242,12.1,-2.016795,-0.1047872,0.002728041,0,0,0,0,0,2.016662,9.419251,0.1047872,0,9.892848,-2.016795,2471.08,37349.3
264,13.2,-2.200395,-0.1104548,0.00287559,0,0,0,0,0,2.200261,10.27679,0.1104548,0,10.84407,-2.200395,2580.072,36084.3
286,14.3,-2.383594,-0.115313,0.003002071,0,0,0,0,0,2.383461,11.13247,0.115313,0,11.80233,-2.383594,2667.866,34775.8
308,15.4,-2.566661,-0.1209307,0.003148322,0,0,0,0,0,2.566527,11.98752,0.1209307,0,12.76915,-2.566661,2770.916,33868.7
330,16.5,-2.75026,-0.125526,0.003267956,0,0,0,0,0,2.750127,12.84506,0.125526,0,13.74827,-2.75026,2848.185,32808.6
352,17.6,-2.93346,-0.1293336,0.003367084,0,0,0,0,0,2.933326,13.70073,0.1293336,0,14.7349,-2.93346,2905.769,31692.6
374,18.7,-3.116926,-0.1330397,0.003463568,0,0,0,0,0,3.116792,14.55765,0.1330397,0,15.73283,-3.116926,2959.354,30681.8
396,19.8,-3.300392,-0.1356704,0.003532057,0,0,0,0,0,3.300259,15.41457,0.1356704,0,16.74081,-3.300392,2987.605,29549.1
418,20.9,-3.483458,-0.1370905,0.003569028,0,0,0,0,0,3.483325,16.26962,0.1370905,0,17.75683,-3.483458,2988.361,28289.2
440,22.0,-3.666791,-0.1379076,0.003590301,0,0,0,0,0,3.666658,17.12591,0.1379076,0,18.78477,-3.666791,2975.429,27034.9
462,23.1,-3.849991,-0.1373004,0.003574492,0,0,0,0,0,3.849857,17.98158,0.1373004,0,19.82264,-3.849991,2931.742,25635.1
484,24.2,-4.033457,-0.1377161,0.003585315,0,0,0,0,0,4.033324,18.8385,0.1377161,0,20.87292,-4.033457,2909.896,24543.1
506,25.3,-4.217057,-0.1367626,0.003560492,0,0,0,0,0,4.216923,19.69604,0.1367626,0,21.93513,-4.217057,2859.216,23312
528,26.4,-4.400389,-0.1361631,0.003544885,0,0,0,0,0,4.400256,20.55234,0.1361631,0,23.00718,-4.400389,2816.328,22242.8
550,27.5,-4.583456,-0.1370771,0.003568679,0,0,0,0,0,4.583323,21.40739,0.1370771,0,24.08925,-4.583456,2804.718,21497.7
572,28.6,-4.766788,-0.1386627,0.003609958,0,0,0,0,0,4.766655,22.26369,0.1386627,0,25.18477,-4.766788,2806.248,20910
594,29.7,-4.949988,-0.1406883,0.003662693,0,0,0,0,0,4.949855,23.11936,0.1406883,0,26.29161,-4.949988,2815.902,20430.2
616,30.8,-5.133721,-0.142922,0.003720846,0,0,0,0,0,5.133588,23.97752,0.142922,0,27.41412,-5.133721,2828.679,20011.8
638,31.9,-5.316921,-0.1441045,0.003751631,0,0,0,0,0,5.316787,24.8332,0.1441045,0,28.54605,-5.316921,2819.981,19482.1
660,33.0,-5.499853,-0.1468803,0.003823897,0,0,0,0,0,5.49972,25.68762,0.1468803,0,29.68927,-5.499853,2841.629,19196.9
682,34.1,-5.683586,-0.1505382,0.003919126,0,0,0,0,0,5.683453,26.54579,0.1505382,0,30.85079,-5.683586,2878.764,19038.9
704,35.2,-5.866786,-0.1544705,0.0040215,0,0,0,0,0,5.866652,27.40146,0.1544705,0,32.02254,-5.866786,2919.551,18926.2
726,36.3,-6.050385,-0.1594703,0.004151665,0,0,0,0,0,6.050252,28.259,0.1594703,0,33.21078,-6.050385,2978.446,18945.8
748,37.4,-6.233585,-0.1634835,0.004256147,0,0,0,0,0,6.233451,29.11467,0.1634835,0,34.41067,-6.233585,3016.984,18851.8
770,38.5,-6.416651,-0.166574,0.004336605,0,0,0,0,0,6.416518,29.96972,0.166574,0,35.62425,-6.416651,3036.937,18660.1
792,39.6,-6.60025,-0.1693919,0.004409965,0,0,0,0,0,6.600117,30.82726,0.1693919,0,36.85634,-6.60025,3050.494,18448
814,40.7,-6.783317,-0.1705333,0.00443968,0,0,0,0,0,6.783183,31.68231,0.1705333,0,38.10015,-6.783317,3033.087,18071
836,41.8,-6.966916,-0.1729526,0.004502664,0,0,0,0,0,6.966783,32.53986,0.1729526,0,39.36332,-6.966916,3037.504,17844.4
858,42.9,-7.150249,-0.1769955,0.004607918,0,0,0,0,0,7.150115,33.39615,0.1769955,0,40.64078,-7.150249,3069.051,17793.3
880,44.0,-7.333315,-0.1807935,0.004706796,0,0,0,0,0,7.333182,34.2512,0.1807935,0,41.93288,-7.333315,3094.662,17721.4
902,45.1,-7.516782,-0.1849057,0.004813855,0,0,0,0,0,7.516649,35.10812,0.1849057,0,43.24477,-7.516782,3123.801,17682.1
924,46.2,-7.700381,-0.188275,0.004901569,0,0,0,0,0,7.700248,35.96566,0.1882749,0,44.57507,-7.700381,3138.687,17575
946,47.3,-7.883447,-0.1929033,0.005022064,0,0,0,0,0,7.883314,36.82071,0.1929033,0,45.91936,-7.883447,3172.904,17588.9
968,48.4,-8.067047,-0.1986709,0.005172217,0,0,0,0,0,8.066914,37.67825,0.1986708,0,47.28598,-8.067047,3223.416,17702.5
990,49.5,-8.250247,-0.2036966,0.005303058,0,0,0,0,0,8.250113,38.53392,0.2036966,0,48.66848,-8.250247,3259.582,17747.3
1012,50.6,-8.433313,-0.2093432,0.005450061,0,0,0,0,0,8.43318,39.38898,0.2093432,0,50.06934,-8.433313,3303.338,17843.3
1034,51.7,-8.617045,-0.2170809,0.005651505,0,0,0,0,0,8.616911,40.24714,0.2170809,0,51.4953,-8.617045,3376.936,18108.3
1056,52.8,-8.800112,-0.2245007,0.005844673,0,0,0,0,0,8.799978,41.10219,0.2245007,0,52.93663,-8.800112,3442.384,18337.6
1078,53.9,-8.983445,-0.2322113,0.006045411,0,0,0,0,0,8.983313,41.95849,0.2322113,0,54.40117,-8.983445,3508.848,18580.4
1100,55.0,-9.166911,-0.2402408,0.006254453,0,0,0,0,0,9.166778,42.8154,0.2402408,0,55.88856,-9.166911,3576.584,18838.1
1122,56.1,-9.349978,-0.2494323,0.006493746,0,0,0,0,0,9.349844,43.67046,0.2494323,0,57.3951,-9.349978,3657.897,19175.9
1144,57.2,-9.533577,-0.2595207,0.006756387,0,0,0,0,0,9.533443,44.52799,0.2595207,0,58.92917,-9.533577,3747.903,19567.2
1166,58.3,-9.716776,-0.2686904,0.006995112,0,0,0,0,0,9.716643,45.38367,0.2686904,0,60.48372,-9.716776,3820.474,19876.7
1188,59.4,-9.900109,-0.2775906,0.007226821,0,0,0,0,0,9.899976,46.23996,0.2775906,0,62.06398,-9.900109,3885.142,20154.8
1210,60.5,-10.08371,-0.2855874,0.007435011,0,0,0,0,0,10.08358,47.0975,0.2855874,0,63.67197,-10.08371,3933.306,20357.8
1232,61.6,-10.26691,-0.2922893,0.007609488,0,0,0,0,0,10.26678,47.95318,0.2922893,0,65.30264,-10.26691,3960.497,20463.8
1254,62.7,-10.45011,-0.300268,0.007817207,0,0,0,0,0,10.44998,48.80885,0.300268,0,66.96035,-10.45011,4001.718,20653.8
1276,63.8,-10.63344,-0.3102285,0.00807652,0,0,0,0,0,10.63331,49.66515,0.3102285,0,68.64724,-10.63344,4065.304,20971.1
1298,64.9,-10.81677,-0.3197537,0.008324501,0,0,0,0,0,10.81664,50.52144,0.3197537,0,70.36307,-10.81677,4118.843,21248.6
1320,66.0,-11.00037,-0.3277366,0.008532328,0,0,0,0,0,11.00024,51.37898,0.3277366,0,72.11143,-11.00037,4148.504,21415.6
1342,67.10001,-11.18357,-0.3366115,0.008763377,0,0,0,0,0,11.18344,52.23465,0.3366114,0,73.88698,-11.18357,4185.857,21635.2
1364,68.20001,-11.36664,-0.344649,0.008972627,0,0,0,0,0,11.36651,53.08971,0.344649,0,75.69331,-11.36664,4209.086,21795
1386,69.3,-11.55024,-0.3526447,0.009180788,0,0,0,0,0,11.5501,53.94724,0.3526447,0,77.53825,-11.55024,4228.006,21946.2
1408,70.4,-11.73344,-0.3610058,0.009398462,0,0,0,0,0,11.7333,54.80292,0.3610058,0,79.41377,-11.73344,4247.831,22115.7
1430,71.5,-11.91704,-0.3682506,0.009587072,0,0,0,0,0,11.9169,55.66046,0.3682506,0,81.32934,-11.91704,4250.864,22212
1452,72.60001,-12.10037,-0.379332,0.009875567,0,0,0,0,0,12.10024,56.51675,0.379332,0,83.27945,-12.10037,4294.217,22533.7
1474,73.70001,-12.28344,-0.3912288,0.01018529,0,0,0,0,0,12.2833,57.37181,0.3912288,0,85.26543,-12.28344,4341.805,22894.1
1496,74.8,-12.4669,-0.4069331,0.01059414,0,0,0,0,0,12.46677,58.22872,0.4069331,0,87.29612,-12.4669,4425.306,23462.6
1518,75.9,-12.6501,-0.424235,0.01104458,0,0,0,0,0,12.64997,59.0844,0.424235,0,89.36587,-12.6501,4518.956,24106
1540,77.0,-12.83357,-0.4393544,0.0114382,0,0,0,0,0,12.83344,59.94131,0.4393544,0,91.48246,-12.83357,4581.992,24608.2
1562,78.10001,-13.0169,-0.4534651,0.01180555,0,0,0,0,0,13.01677,60.79761,0.4534651,0,93.64325,-13.0169,4628.059,25040.8
1584,79.20001,-13.19997,-0.465796,0.01212658,0,0,0,0,0,13.19983,61.65266,0.465796,0,95.8485,-13.19997,4650.221,25365
1606,80.3,-13.38343,-0.4793038,0.01247824,0,0,0,0,0,13.3833,62.50958,0.4793038,0,98.10847,-13.38343,4678.146,25742.8
1628,81.4,-13.56703,-0.4979311,0.01296319,0,0,0,0,0,13.5669,63.36712,0.4979311,0,100.4224,-13.56703,4748.79,26381.3
1650,82.50001,-13.7501,-0.5175691,0.01347444,0,0,0,0,0,13.74997,64.22217,0.5175691,0,102.7842,-13.7501,4820.864,27056.6
1672,83.60001,-13.9337,-0.5443084,0.01417058,0,0,0,0,0,13.93357,65.07971,0.5443084,0,105.2102,-13.9337,4948.407,28079.5
1694,84.70001,-14.1169,-0.5734722,0.01492983,0,0,0,0,0,14.11677,65.93539,0.5734722,0,107.6911,-14.1169,5085.79,29200.1
1716,85.8,-14.29997,-0.6054125,0.01576137,0,0,0,0,0,14.29983,66.79044,0.6054125,0,110.2332,-14.29997,5234.282,30431.8
1738,86.9,-14.4837,-0.6387465,0.01662919,0,0,0,0,0,14.48356,67.6486,0.6387464,0,112.8513,-14.4837,5379.776,31700.1
1760,88.00001,-14.66676,-0.6743645,0.01755647,0,0,0,0,0,14.66663,68.50365,0.6743645,0,115.5298,-14.66676,5529.649,33050
1782,89.10001,-14.85023,-0.7127109,0.01855479,0,0,0,0,0,14.8501,69.36057,0.712711,0,118.2882,-14.85023,5685.082,34497.8
1801,90.036,-15.00623,-0.747212,0.01945299,0,0,0,0,0,15.0061,70.0892,0.747212,0,120.695,-15.00623,5818.546,35791.8

File: g7_1.csv
,Time sec,Extension mm,Load kgf,Compressive stress MPa,Cycle Count ,Total Cycle Count ,Repetitions Count ,Marked Data ,PIP Count ,Compressive extension mm,Compressive strain %,Compressive load kgf,Displacement (Strain 1) mm,True strain %,Corrected Position mm,True stress Pa,Elastic Modulus
0,0.0,-0.000133333,-0.01092473,0.0002851963,0,0,0,0,0,-2.762533e-20,-1.084202e-19,0.01092473,0,0.0,-0.000133333,285.1963,-2.84257e+23
22,1.1,-0.1834662,-0.02864896,0.0007478977,0,0,0,0,0,0.1833329,0.7195206,0.02864897,0,0.7221217,-0.1834662,742.5164,112325
44,2.2,-0.3670658,-0.04580877,0.001195864,0,0,0,0,0,0.3669325,1.440088,0.04580877,0,1.450558,-0.3670658,1178.643,89736.6
66,3.3,-0.5499987,-0.06540262,0.001707373,0,0,0,0,0,0.5498653,2.158038,0.06540262,0,2.181665,-0.5499987,1670.527,85496.1
88,4.4,-0.7334649,-0.08614885,0.002248965,0,0,0,0,0,0.7333316,2.878083,0.08614885,0,2.920312,-0.7334649,2184.238,84441.6
110,5.5,-0.9167978,-0.1084719,0.00283172,0,0,0,0,0,0.9166645,3.597603,0.1084718,0,3.663912,-0.9167978,2729.846,85057.7
132,6.6,-1.100131,-0.1303687,0.00340335,0,0,0,0,0,1.099997,4.317123,0.1303687,0,4.413083,-1.100131,3256.423,85190.1
154,7.7,-1.28373,-0.1532643,0.004001052,0,0,0,0,0,1.283597,5.037691,0.1532643,0,5.169012,-1.28373,3799.491,85826.1
176,8.8,-1.466796,-0.1792546,0.004679545,0,0,0,0,0,1.466663,5.756165,0.1792546,0,5.928477,-1.466796,4410.183,87851.1
198,9.900001,-1.649996,-0.2044368,0.00533694,0,0,0,0,0,1.649863,6.475162,0.2044368,0,6.694313,-1.649996,4991.365,89067.3
220,11.0,-1.833596,-0.2291633,0.00598244,0,0,0,0,0,1.833462,7.195729,0.2291633,0,7.467753,-1.833596,5551.96,89842.2
242,12.1,-2.016795,-0.2529662,0.006603828,0,0,0,0,0,2.016662,7.914727,0.2529662,0,8.245516,-2.016795,6081.153,90164.7
264,13.2,-2.200395,-0.2762912,0.00721274,0,0,0,0,0,2.200261,8.635294,0.2762912,0,9.031093,-2.200395,6589.899,90261
286,14.3,-2.383594,-0.2981796,0.00778415,0,0,0,0,0,2.383461,9.354291,0.2981796,0,9.821158,-2.383594,7055.998,89924.3
308,15.4,-2.566661,-0.3188829,0.00832462,0,0,0,0,0,2.566527,10.07277,0.3188829,0,10.61693,-2.566661,7486.1,89308.5
330,16.5,-2.750127,-0.3385893,0.008839068,0,0,0,0,0,2.749993,10.79281,0.3385893,0,11.42085,-2.750127,7885.085,88501.2
352,17.6,-2.93346,-0.3570242,0.009320321,0,0,0,0,0,2.933326,11.51233,0.3570242,0,12.2307,-2.93346,8247.335,87487.2
374,18.7,-3.116792,-0.373872,0.009760144,0,0,0,0,0,3.116659,12.23185,0.373872,0,13.04715,-3.116792,8566.298,86226.5
396,19.8,-3.300392,-0.3892302,0.01016108,0,0,0,0,0,3.300258,12.95242,0.3892303,0,13.87153,-3.300392,8844.974,84774.7
418,20.9,-3.483458,-0.4024956,0.01050738,0,0,0,0,0,3.483325,13.67089,0.4024956,0,14.70033,-3.483458,9070.925,83056.7
440,22.0,-3.666791,-0.4137633,0.01080153,0,0,0,0,0,3.666658,14.39041,0.4137633,0,15.53729,-3.666791,9247.144,81112.7
462,23.1,-3.850124,-0.4232231,0.01104848,0,0,0,0,0,3.84999,15.10993,0.4232231,0,16.38131,-3.850124,9379.064,79016.4
484,24.2,-4.033323,-0.4315242,0.01126519,0,0,0,0,0,4.03319,15.82893,0.4315242,0,17.23189,-4.033323,9482.029,76906.6
506,25.3,-4.216923,-0.4375955,0.01142368,0,0,0,0,0,4.216789,16.5495,0.4375955,0,18.09165,-4.216923,9533.121,74593
528,26.4,-4.400256,-0.4409581,0.01151146,0,0,0,0,0,4.400123,17.26902,0.4409581,0,18.9576,-4.400256,9523.547,72034.4
550,27.5,-4.583456,-0.4420129,0.011539,0,0,0,0,0,4.583323,17.98802,0.4420129,0,19.83048,-4.583456,9463.362,69320.5
572,28.6,-4.766788,-0.4427502,0.01155825,0,0,0,0,0,4.766654,18.70753,0.4427502,0,20.71168,-4.766788,9395.984,66765.6
594,29.7,-4.949988,-0.4416703,0.01153006,0,0,0,0,0,4.949855,19.42653,0.4416703,0,21.60008,-4.949988,9290.165,64137.6
616,30.8,-5.133587,-0.4400264,0.01148714,0,0,0,0,0,5.133454,20.1471,0.4400264,0,22.4984,-5.133587,9172.815,61613.6
638,31.9,-5.316921,-0.4398105,0.01148151,0,0,0,0,0,5.316787,20.86662,0.4398105,0,23.40354,-5.316921,9085.703,59459.8
660,33.0,-5.499986,-0.4400928,0.01148888,0,0,0,0,0,5.499853,21.58509,0.4400928,0,24.31562,-5.499986,9008.991,57517.6
682,34.1,-5.683453,-0.4403963,0.0114968,0,0,0,0,0,5.683319,22.30514,0.4403963,0,25.2381,-5.683453,8932.422,55699.2
704,35.2,-5.866652,-0.4420145,0.01153904,0,0,0,0,0,5.866519,23.02414,0.4420145,0,26.16783,-5.866652,8882.277,54158.1
726,36.3,-6.050252,-0.4440691,0.01159268,0,0,0,0,0,6.050119,23.7447,0.4440691,0,27.10833,-6.050252,8840.031,52758.7
748,37.4,-6.233718,-0.445646,0.01163384,0,0,0,0,0,6.233584,24.46475,0.445646,0,28.05707,-6.233718,8787.654,51387.7
770,38.5,-6.416651,-0.4459544,0.0116419,0,0,0,0,0,6.416518,25.1827,0.4459544,0,29.0121,-6.416651,8710.152,49957.2
792,39.6,-6.600117,-0.447265,0.01167611,0,0,0,0,0,6.599984,25.90274,0.447265,0,29.97916,-6.600117,8651.678,48711.3
814,40.7,-6.78345,-0.4480095,0.01169555,0,0,0,0,0,6.783317,26.62226,0.4480095,0,30.95496,-6.78345,8581.927,47473.6
836,41.8,-6.96665,-0.4486242,0.01171159,0,0,0,0,0,6.966516,27.34126,0.4486242,0,31.93965,-6.96665,8509.495,46288.6
858,42.9,-7.150383,-0.4505746,0.01176251,0,0,0,0,0,7.150249,28.06235,0.4505745,0,32.93704,-7.150383,8461.671,45295.3
880,44.0,-7.333449,-0.4521786,0.01180438,0,0,0,0,0,7.333315,28.78082,0.4521786,0,33.94081,-7.333449,8406.984,44321.8
902,45.1,-7.516648,-0.4540698,0.01185375,0,0,0,0,0,7.516515,29.49982,0.4540698,0,34.95549,-7.516648,8356.917,43422.4
924,46.2,-7.700248,-0.4559646,0.01190322,0,0,0,0,0,7.700114,30.22039,0.4559646,0,35.98283,-7.700248,8306.019,42563.9
946,47.3,-7.883447,-0.4579265,0.01195443,0,0,0,0,0,7.883314,30.93938,0.4579265,0,37.01856,-7.883447,8255.805,41753.6
968,48.4,-8.067047,-0.4586005,0.01197203,0,0,0,0,0,8.066914,31.65995,0.4586005,0,38.06743,-8.067047,8181.69,40863.4
990,49.5,-8.250247,-0.4579487,0.01195501,0,0,0,0,0,8.250113,32.37895,0.4579487,0,39.12509,-8.250247,8084.106,39899.2
1012,50.6,-8.433313,-0.4587499,0.01197593,0,0,0,0,0,8.433179,33.09742,0.4587499,0,40.19327,-8.433313,8012.205,39101.4
1034,51.7,-8.616912,-0.4623258,0.01206928,0,0,0,0,0,8.616779,33.81799,0.4623258,0,41.27615,-8.616912,7987.691,38566.5
1056,52.8,-8.799979,-0.4639706,0.01211222,0,0,0,0,0,8.799846,34.53646,0.4639706,0,42.36769,-8.799979,7929.087,37898.6
1078,53.9,-8.983311,-0.4668229,0.01218668,0,0,0,0,0,8.983178,35.25599,0.4668229,0,43.47289,-8.983311,7890.145,37353.3
1100,55.0,-9.167044,-0.4693873,0.01225362,0,0,0,0,0,9.166911,35.97708,0.4693873,0,44.5929,-9.167044,7845.128,36805.7
1122,56.1,-9.349978,-0.4697387,0.0122628,0,0,0,0,0,9.349843,36.69503,0.4697387,0,45.72063,-9.349978,7762.961,36112.6
1144,57.2,-9.533577,-0.4689528,0.01224228,0,0,0,0,0,9.533442,37.41559,0.4689528,0,46.8654,-9.533577,7661.759,35357.9
1166,58.3,-9.716643,-0.4685164,0.01223089,0,0,0,0,0,9.71651,38.13407,0.4685164,0,48.02005,-9.716643,7566.754,34659.5
1188,59.4,-9.900109,-0.4669416,0.01218978,0,0,0,0,0,9.899976,38.85411,0.4669416,0,49.19076,-9.900109,7453.549,33902.8
1210,60.5,-10.08384,-0.4657365,0.01215832,0,0,0,0,0,10.08371,39.5752,0.4657365,0,50.37706,-10.08384,7346.639,33199.2
1232,61.6,-10.26691,-0.4637651,0.01210685,0,0,0,0,0,10.26678,40.29368,0.4637651,0,51.57323,-10.26691,7228.557,32469.2
1254,62.7,-10.45024,-0.4607252,0.0120275,0,0,0,0,0,10.45011,41.0132,0.4607252,0,52.78564,-10.45024,7094.636,31690.4
1276,63.8,-10.63344,-0.4598674,0.0120051,0,0,0,0,0,10.63331,41.73219,0.4598674,0,54.01205,-10.63344,6995.11,31086.5
1298,64.9,-10.81677,-0.4598077,0.01200354,0,0,0,0,0,10.81664,42.45171,0.4598077,0,55.25458,-10.81677,6907.834,30555.6
1320,66.0,-11.00024,-0.4602245,0.01201442,0,0,0,0,0,11.00011,43.17176,0.4602245,0,56.51368,-11.00024,6827.586,30073.2
1342,67.10001,-11.18357,-0.4605571,0.01202311,0,0,0,0,0,11.18344,43.89128,0.4605571,0,57.7879,-11.18357,6746.011,29601.6
1364,68.20001,-11.36664,-0.4597412,0.01200181,0,0,0,0,0,11.36651,44.60975,0.4597412,0,59.07666,-11.36664,6647.831,29073.3
1386,69.3,-11.54997,-0.4584167,0.01196723,0,0,0,0,0,11.54984,45.32927,0.4584167,0,60.38418,-11.54997,6542.572,28529.3
1408,70.4,-11.73344,-0.4592363,0.01198863,0,0,0,0,0,11.7333,46.04932,0.4592363,0,61.70998,-11.73344,6467.946,28133.5
1430,71.5,-11.9169,-0.4609814,0.01203418,0,0,0,0,0,11.91677,46.76936,0.4609814,0,63.05361,-11.9169,6405.873,27805.6
1452,72.60001,-12.1005,-0.461991,0.01206054,0,0,0,0,0,12.10037,47.48993,0.461991,0,64.41652,-12.1005,6332.999,27443.7
1474,73.70001,-12.2833,-0.462871,0.01208351,0,0,0,0,0,12.28317,48.20736,0.462871,0,65.79221,-12.2833,6258.37,27086.7
1496,74.8,-12.46677,-0.4626931,0.01207887,0,0,0,0,0,12.46664,48.9274,0.4626931,0,67.1922,-12.46677,6168.992,26677.9
1518,75.9,-12.64997,-0.4636944,0.01210501,0,0,0,0,0,12.64984,49.6464,0.4636944,0,68.61,-12.64997,6095.308,26348.4
1540,77.0,-12.83344,-0.4630507,0.0120882,0,0,0,0,0,12.8333,50.36644,0.4630507,0,70.0503,-12.83344,5999.806,25935.7
1562,78.10001,-13.01704,-0.4649312,0.0121373,0,0,0,0,0,13.0169,51.08701,0.4649312,0,71.51272,-13.01704,5936.714,25673.7
1584,79.20001,-13.19997,-0.4668279,0.01218681,0,0,0,0,0,13.19983,51.80496,0.4668279,0,72.9914,-13.19997,5873.438,25421.2
1606,80.3,-13.38357,-0.4698583,0.01226592,0,0,0,0,0,13.38343,52.52552,0.4698583,0,74.49779,-13.38357,5823.181,25235.2
1628,81.4,-13.5669,-0.4730987,0.01235051,0,0,0,0,0,13.56677,53.24504,0.4730987,0,76.02499,-13.5669,5774.477,25065.9
1650,82.50001,-13.7501,-0.47767,0.01246985,0,0,0,0,0,13.74997,53.96404,0.47767,0,77.57474,-13.7501,5740.614,24970.9
1672,83.60001,-13.93357,-0.4826078,0.01259875,0,0,0,0,0,13.93343,54.68409,0.4826078,0,79.1512,-13.93357,5709.24,24896.8
1694,84.70001,-14.1169,-0.4867255,0.01270625,0,0,0,0,0,14.11677,55.40361,0.4867255,0,80.75173,-14.1169,5666.528,24783.1
1716,85.8,-14.29997,-0.490603,0.01280747,0,0,0,0,0,14.29983,56.12209,0.490603,0,82.37591,-14.29997,5619.652,24660.8
1738,86.9,-14.48356,-0.4960443,0.01294952,0,0,0,0,0,14.48343,56.84265,0.4960443,0,84.03174,-14.48356,5588.671,24618.2
1760,88.00001,-14.66663,-0.5005563,0.01306731,0,0,0,0,0,14.6665,57.56112,0.5005563,0,85.71054,-14.66663,5545.62,24532
1782,89.10001,-14.84996,-0.5073999,0.01324597,0,0,0,0,0,14.84983,58.28064,0.5073999,0,87.4205,-14.84996,5526.132,24560.4
1803,90.10201,-15.0173,-0.5156436,0.01346117,0,0,0,0,0,15.01716,58.93737,0.5156436,0,89.00716,-15.0173,5527.512,24681.4