Folder: MatSci/GFBaking/em (part 6)

File: xg2.csv
,Time sec,Extension mm,Load kgf,Compressive stress MPa,Cycle Count ,Total Cycle Count ,Repetitions Count ,Marked Data ,PIP Count ,Compressive extension mm,Compressive strain %,Compressive load kgf,Displacement (Strain 1) mm,True strain %,Corrected Position mm,True stress Pa,Elastic Modulus
0,0.0,-1.080397,-0.00641651,0.0001356804,0,0,0,0,0,-1.964651e-16,-8.881784e-16,0.00641651,0,0.0,-1.080397,135.6804,-2.34758e+19
20,1.0,-1.24693,-0.02020936,0.0004273373,0,0,0,0,0,0.1665329,0.7528614,0.02020936,0,0.7557097,-1.24693,424.12,87228.8
40,2.0,-1.413597,-0.03123402,0.0006604593,0,0,0,0,0,0.3331992,1.506325,0.03123402,0,1.517786,-1.413597,650.5107,67380
60,3.0,-1.580263,-0.04268079,0.0009025073,0,0,0,0,0,0.4998654,2.259789,0.04268079,0,2.285714,-1.580263,882.1125,61374.3
80,4.0,-1.747196,-0.05475545,0.001157832,0,0,0,0,0,0.6667984,3.014459,0.05475545,0,3.060828,-1.747196,1122.93,59025.6
100,5.0,-1.913729,-0.06677818,0.001412059,0,0,0,0,0,0.8333313,3.76732,0.06677818,0,3.840118,-1.913729,1358.862,57600.2
120,6.0,-2.080128,-0.0789369,0.001669161,0,0,0,0,0,0.9997309,4.519579,0.0789369,0,4.624898,-2.080128,1593.722,56755
140,7.0,-2.247328,-0.09196985,0.00194475,0,0,0,0,0,1.166931,5.275455,0.09196986,0,5.419703,-2.247328,1842.155,56651
160,8.0,-2.413728,-0.1047757,0.002215535,0,0,0,0,0,1.33333,6.027713,0.1047757,0,6.217027,-2.413728,2081.989,56484.6
180,9.0,-2.58026,-0.1166186,0.00246596,0,0,0,0,0,1.499863,6.780574,0.1166186,0,7.021405,-2.58026,2298.754,55888.6
200,10.0,-2.746927,-0.1289754,0.002727252,0,0,0,0,0,1.666529,7.534038,0.1289754,0,7.832959,-2.746927,2521.779,55629
220,11.0,-2.913593,-0.141489,0.002991859,0,0,0,0,0,1.833195,8.287502,0.141489,0,8.651152,-2.913593,2743.908,55478.1
240,12.0,-3.080659,-0.1541746,0.003260101,0,0,0,0,0,2.000262,9.042774,0.1541746,0,9.478083,-3.080659,2965.298,55403
260,13.0,-3.247059,-0.1663083,0.003516675,0,0,0,0,0,2.166662,9.795033,0.1663083,0,10.30857,-3.247059,3172.215,55173.4
280,14.0,-3.413458,-0.178198,0.003768088,0,0,0,0,0,2.333061,10.54729,0.178198,0,11.14601,-3.413458,3370.657,54901.5
300,15.0,-3.580525,-0.1900122,0.004017906,0,0,0,0,0,2.500127,11.30256,0.1900122,0,11.99392,-3.580525,3563.78,54629.4
320,16.0,-3.747191,-0.2021492,0.004274548,0,0,0,0,0,2.666794,12.05603,0.2021492,0,12.84703,-3.747191,3759.207,54486.6
340,17.0,-3.913724,-0.2143487,0.004532513,0,0,0,0,0,2.833327,12.80889,0.2143487,0,13.70678,-3.913724,3951.948,54379
360,18.0,-4.080123,-0.2253105,0.004764306,0,0,0,0,0,2.999726,13.56115,0.2253105,0,14.57329,-4.080123,4118.211,53989.2
380,19.0,-4.246923,-0.2358788,0.004987779,0,0,0,0,0,3.166526,14.31522,0.2358788,0,15.44949,-4.246923,4273.768,53544.3
400,20.0,-4.413856,-0.2461295,0.005204535,0,0,0,0,0,3.333459,15.06989,0.2461295,0,16.33415,-4.413856,4420.217,53073.3
420,21.0,-4.580389,-0.2555127,0.005402947,0,0,0,0,0,3.499991,15.82275,0.2555127,0,17.22454,-4.580389,4548.052,52475.1
440,22.0,-4.746789,-0.264097,0.005584467,0,0,0,0,0,3.666391,16.57501,0.264097,0,18.12222,-4.746789,4658.842,51776.4
460,23.0,-4.913855,-0.2723296,0.005758549,0,0,0,0,0,3.833458,17.33028,0.2723296,0,19.03168,-4.913855,4760.577,51063.6
480,24.0,-5.080387,-0.2796217,0.005912744,0,0,0,0,0,3.99999,18.08314,0.2796217,0,19.94653,-5.080387,4843.535,50248.1
500,25.0,-5.246921,-0.2858402,0.006044239,0,0,0,0,0,4.166523,18.836,0.2858402,0,20.86984,-5.246921,4905.746,49312.5
520,26.0,-5.413454,-0.291475,0.006163389,0,0,0,0,0,4.333056,19.58886,0.291475,0,21.80175,-5.413454,4956.051,48352
540,27.0,-5.580253,-0.2968946,0.006277989,0,0,0,0,0,4.499856,20.34293,0.2968946,0,22.74394,-5.580253,5000.862,47425.4
560,28.0,-5.747319,-0.3028451,0.006403815,0,0,0,0,0,4.666922,21.0982,0.3028451,0,23.69661,-5.747319,5052.726,46644.2
580,29.0,-5.913719,-0.3087171,0.006527981,0,0,0,0,0,4.833322,21.85046,0.3087171,0,24.6546,-5.913719,5101.587,45911.6
600,30.0,-6.080252,-0.3149661,0.006660121,0,0,0,0,0,4.999854,22.60332,0.3149661,0,25.62263,-6.080252,5154.713,45280.8
620,31.0,-6.247052,-0.3209541,0.00678674,0,0,0,0,0,5.166654,23.35739,0.3209541,0,26.6017,-6.247052,5201.535,44652
640,32.0,-6.413851,-0.3270655,0.006915969,0,0,0,0,0,5.333453,24.11145,0.3270655,0,27.59044,-6.413851,5248.428,44079.2
660,33.0,-6.580384,-0.3335282,0.007052624,0,0,0,0,0,5.499987,24.86432,0.3335282,0,28.58746,-6.580384,5299.038,43589.1
680,34.0,-6.746917,-0.3387931,0.007163955,0,0,0,0,0,5.66652,25.61718,0.3387932,0,29.59452,-6.746917,5328.752,42976
700,35.0,-6.913583,-0.3442162,0.007278628,0,0,0,0,0,5.833186,26.37064,0.3442162,0,30.61263,-6.913583,5359.207,42416.3
720,36.0,-7.080516,-0.3505182,0.007411887,0,0,0,0,0,6.000118,27.12531,0.3505182,0,31.64288,-7.080516,5401.39,41991.2
740,37.0,-7.246916,-0.3556751,0.007520934,0,0,0,0,0,6.166518,27.87757,0.3556751,0,32.68051,-7.246916,5424.28,41459.2
760,38.0,-7.413449,-0.3614656,0.007643376,0,0,0,0,0,6.333051,28.63043,0.3614656,0,33.72986,-7.413449,5455.045,41026.2
780,39.0,-7.580648,-0.3683363,0.007788661,0,0,0,0,0,6.500251,29.3863,0.3683363,0,34.79461,-7.580648,5499.861,40730.7
800,40.0,-7.747048,-0.3753112,0.007936147,0,0,0,0,0,6.66665,30.13856,0.3753111,0,35.86564,-7.747048,5544.307,40466.1
820,41.0,-7.913581,-0.382536,0.008088919,0,0,0,0,0,6.833184,30.89143,0.382536,0,36.94914,-7.913581,5590.137,40239.9
840,42.0,-8.08038,-0.3893604,0.008233227,0,0,0,0,0,6.999982,31.64549,0.3893604,0,38.04626,-8.08038,5627.782,39981.8
860,43.0,-8.246914,-0.3963508,0.008381042,0,0,0,0,0,7.166516,32.39835,0.3963508,0,39.15379,-8.246914,5665.722,39753.8
880,44.0,-8.413847,-0.4037411,0.008537313,0,0,0,0,0,7.333449,33.15303,0.4037411,0,40.27642,-8.413847,5706.935,39573.3
900,45.0,-8.580246,-0.410677,0.008683976,0,0,0,0,0,7.499849,33.90528,0.410677,0,41.40814,-8.580246,5739.649,39360
920,46.0,-8.747046,-0.418601,0.008851533,0,0,0,0,0,7.666648,34.65935,0.418601,0,42.55558,-8.747046,5783.649,39246.6
940,47.0,-8.913712,-0.4266851,0.009022475,0,0,0,0,0,7.833314,35.41281,0.4266851,0,43.71541,-8.913712,5827.363,39153.4
960,48.0,-9.080512,-0.4358892,0.009217101,0,0,0,0,0,8.000114,36.16688,0.4358892,0,44.8898,-9.080512,5883.563,39164
980,49.0,-9.247044,-0.4438047,0.009384478,0,0,0,0,0,8.166648,36.91974,0.4438047,0,46.07624,-9.247044,5919.753,39062.1
1000,50.0,-9.413578,-0.4525708,0.009569842,0,0,0,0,0,8.33318,37.6726,0.4525708,0,47.27691,-9.413578,5964.633,39037.6
1020,51.0,-9.580377,-0.4626328,0.009782609,0,0,0,0,0,8.499979,38.42667,0.4626328,0,48.49413,-9.580377,6023.478,39122.4
1040,52.0,-9.747176,-0.4732842,0.01000784,0,0,0,0,0,8.666779,39.18074,0.4732842,0,49.72636,-9.747176,6086.693,39252.9
1060,53.0,-9.913709,-0.4833038,0.01021971,0,0,0,0,0,8.833311,39.9336,0.4833038,0,50.97195,-9.913709,6138.611,39328.2
1080,54.0,-10.08011,-0.4936585,0.01043866,0,0,0,0,0,8.999711,40.68586,0.4936585,0,52.23224,-10.08011,6191.604,39428.1
1100,55.0,-10.24717,-0.5040207,0.01065778,0,0,0,0,0,9.166777,41.44113,0.5040208,0,53.51375,-10.24717,6241.075,39522
1120,56.0,-10.41371,-0.5147337,0.01088431,0,0,0,0,0,9.333312,42.19399,0.5147337,0,54.80775,-10.41371,6291.785,39641.9
1140,57.0,-10.58024,-0.5242824,0.01108622,0,0,0,0,0,9.499844,42.94685,0.5242825,0,56.11869,-10.58024,6325.039,39669.5
1160,58.0,-10.74704,-0.5350681,0.01131429,0,0,0,0,0,9.666643,43.70092,0.535068,0,57.4492,-10.74704,6369.841,39786.9
1180,59.0,-10.91371,-0.5463634,0.01155314,0,0,0,0,0,9.833309,44.45438,0.5463634,0,58.79655,-10.91371,6417.261,39938.3
1200,60.0,-11.08037,-0.5591164,0.0118228,0,0,0,0,0,9.999975,45.20785,0.5591164,0,60.16232,-11.08037,6477.969,40189.3
1220,61.0,-11.24717,-0.5722846,0.01210125,0,0,0,0,0,10.16678,45.96191,0.5722846,0,61.54811,-11.24717,6539.285,40460.9
1240,62.0,-11.41371,-0.5861932,0.01239536,0,0,0,0,0,10.33331,46.71478,0.5861932,0,62.95111,-11.41371,6604.894,40776.4
1260,63.0,-11.58037,-0.6002617,0.01269284,0,0,0,0,0,10.49997,47.46824,0.6002616,0,64.37522,-11.58037,6667.773,41092.2
1280,64.0,-11.74717,-0.6146295,0.01299666,0,0,0,0,0,10.66677,48.22231,0.6146295,0,65.82107,-11.74717,6729.37,41417.9
1300,65.0,-11.91357,-0.6289255,0.01329895,0,0,0,0,0,10.83317,48.97456,0.6289255,0,67.28459,-11.91357,6785.849,41730.2
1320,66.0,-12.08024,-0.6441732,0.01362137,0,0,0,0,0,10.99984,49.72803,0.6441732,0,68.77225,-12.08024,6847.733,42094.3
1340,67.0,-12.24677,-0.6592294,0.01393975,0,0,0,0,0,11.16637,50.48089,0.6592295,0,70.28115,-12.24677,6902.838,42435.8
1360,68.0,-12.41384,-0.6760411,0.01429524,0,0,0,0,0,11.33344,51.23616,0.6760411,0,71.81811,-12.41384,6970.907,42876.4
1380,69.0,-12.58037,-0.6926962,0.01464742,0,0,0,0,0,11.49997,51.98903,0.6926962,0,73.37405,-12.58037,7032.368,43296.6
1400,70.0,-12.7469,-0.7105431,0.0150248,0,0,0,0,0,11.6665,52.74188,0.710543,0,74.95458,-12.7469,7100.437,43778.1
1420,71.0,-12.91384,-0.7296627,0.01542909,0,0,0,0,0,11.83344,53.49656,0.7296627,0,76.56438,-12.91384,7175.06,44321.9
1440,72.0,-13.08037,-0.7488414,0.01583464,0,0,0,0,0,11.99997,54.24941,0.7488414,0,78.19656,-13.08037,7244.439,44855.6
1460,73.0,-13.2469,-0.7686766,0.01625406,0,0,0,0,0,12.1665,55.00228,0.7686766,0,79.85583,-13.2469,7313.958,45413.5
1480,74.0,-13.41383,-0.7896789,0.01669817,0,0,0,0,0,12.33344,55.75695,0.7896789,0,81.54718,-13.41383,7387.779,46022.9
1500,75.0,-13.58023,-0.8115079,0.01715975,0,0,0,0,0,12.49984,56.5092,0.8115079,0,83.26209,-13.58023,7462.912,46665.5
1520,76.0,-13.74717,-0.8342063,0.01763972,0,0,0,0,0,12.66677,57.26388,0.8342063,0,85.01256,-13.74717,7538.533,47338.5
1540,77.0,-13.9137,-0.8578952,0.01814063,0,0,0,0,0,12.8333,58.01674,0.8578951,0,86.78991,-13.9137,7616.031,48051.1
1560,78.0,-14.08037,-0.8839223,0.01869099,0,0,0,0,0,12.99997,58.7702,0.8839223,0,88.60088,-14.08037,7706.259,48874.1
1580,79.0,-14.24703,-0.9110502,0.01926463,0,0,0,0,0,13.16663,59.52366,0.9110502,0,90.44527,-14.24703,7797.615,49736.5
1600,80.0,-14.41383,-0.9397861,0.01987226,0,0,0,0,0,13.33343,60.27773,0.9397861,0,92.32582,-14.41383,7893.713,50663.4
1620,81.00001,-14.58036,-0.9695005,0.02050059,0,0,0,0,0,13.49997,61.03059,0.9695005,0,94.23932,-14.58036,7988.957,51620.5
1640,82.00001,-14.74703,-1.001155,0.02116993,0,0,0,0,0,13.66663,61.78406,1.001155,0,96.19174,-14.74703,8090.289,52655.9
1660,83.00001,-14.9137,-1.034301,0.02187083,0,0,0,0,0,13.8333,62.53752,1.034301,0,98.18303,-14.9137,8193.355,53743.8
1680,84.00001,-15.08036,-1.070593,0.02263825,0,0,0,0,0,13.99997,63.29099,1.070593,0,100.2148,-15.08036,8310.278,54967.3
1681,84.00401,-15.0809,-1.070786,0.02264233,0,0,0,0,0,14.0005,63.2934,1.070786,0,100.2214,-15.0809,8311.228,54975.2

File: xg3.csv
,Time sec,Extension mm,Load kgf,Compressive stress MPa,Cycle Count ,Total Cycle Count ,Repetitions Count ,Marked Data ,PIP Count ,Compressive extension mm,Compressive strain %,Compressive load kgf,Displacement (Strain 1) mm,True strain %,Corrected Position mm,True stress Pa,Elastic Modulus
0,0.0,-0.7078649,-0.008656339,0.0002239262,0,0,0,0,0,-1.04361e-16,-4.440892e-16,0.00865634,0,0.0,-0.7078649,223.9262,-5.96216e+19
22,1.1,-0.8910645,-0.02129067,0.000550757,0,0,0,0,0,0.1831995,0.7795725,0.02129067,0,0.782627,-0.8910645,546.4635,83535.7
44,2.2,-1.074797,-0.03259764,0.0008432511,0,0,0,0,0,0.3669324,1.561415,0.03259764,0,1.573733,-1.074797,830.0844,63856.8
66,3.3,-1.257864,-0.04292883,0.001110503,0,0,0,0,0,0.5499986,2.34042,0.04292883,0,2.368243,-1.257864,1084.512,56104.1
88,4.4,-1.44133,-0.05283384,0.00136673,0,0,0,0,0,0.7334649,3.121127,0.05283384,0,3.170872,-1.44133,1324.073,51777.4
110,5.5,-1.624796,-0.06167595,0.001595462,0,0,0,0,0,0.9169312,3.901835,0.06167594,0,3.979996,-1.624796,1533.21,48348.9
132,6.6,-1.807996,-0.06985662,0.001807084,0,0,0,0,0,1.100131,4.681407,0.06985662,0,4.794529,-1.807996,1722.487,45642.6
154,7.7,-1.991329,-0.0775123,0.002005124,0,0,0,0,0,1.283464,5.461547,0.07751229,0,5.616353,-1.991329,1895.613,43410.4
176,8.8,-2.174528,-0.08447645,0.002185276,0,0,0,0,0,1.466663,6.24112,0.08447645,0,6.444381,-2.174528,2048.89,41401.2
198,9.900001,-2.357861,-0.08995917,0.002327106,0,0,0,0,0,1.649996,7.02126,0.08995917,0,7.279932,-2.357861,2163.714,39189.5
220,11.0,-2.541461,-0.09507861,0.002459538,0,0,0,0,0,1.833596,7.802535,0.0950786,0,8.123754,-2.541461,2267.631,37272.3
242,12.1,-2.72466,-0.1000654,0.002588538,0,0,0,0,0,2.016795,8.582107,0.1000654,0,8.972896,-2.72466,2366.387,35664
264,13.2,-2.907993,-0.104086,0.002692546,0,0,0,0,0,2.200128,9.362247,0.104086,0,9.829936,-2.907993,2440.463,34005.7
286,14.3,-3.091326,-0.1088685,0.002816261,0,0,0,0,0,2.383461,10.14239,0.1088685,0,10.69438,-3.091326,2530.625,32832.3
308,15.4,-3.274525,-0.1127572,0.002916857,0,0,0,0,0,2.56666,10.92196,0.1127572,0,11.56573,-3.274525,2598.279,31577.9
330,16.5,-3.458125,-0.1165345,0.003014569,0,0,0,0,0,2.75026,11.70323,0.1165345,0,12.44667,-3.458125,2661.767,30457.1
352,17.6,-3.641458,-0.1203729,0.003113861,0,0,0,0,0,2.933593,12.48337,0.1203729,0,13.33414,-3.641458,2725.147,29494.2
374,18.7,-3.824391,-0.1247262,0.003226475,0,0,0,0,0,3.116526,13.26181,0.1247262,0,14.22759,-3.824391,2798.586,28767
396,19.8,-4.007857,-0.1283444,0.003320072,0,0,0,0,0,3.299992,14.04252,0.1283444,0,15.13174,-4.007857,2853.85,27955.8
418,20.9,-4.191056,-0.1326384,0.003431152,0,0,0,0,0,3.483191,14.82209,0.1326384,0,16.04281,-4.191056,2922.583,27371.5
440,22.0,-4.37479,-0.1366861,0.003535859,0,0,0,0,0,3.666924,15.60393,0.1366861,0,16.96494,-4.37479,2984.126,26793.5
462,23.1,-4.558255,-0.1404181,0.0036324,0,0,0,0,0,3.85039,16.38464,0.1404181,0,17.8943,-4.558255,3037.245,26213.5
484,24.2,-4.741055,-0.1456132,0.003766791,0,0,0,0,0,4.03319,17.16251,0.1456132,0,18.82894,-4.741055,3120.315,25951.3
506,25.3,-4.924521,-0.1498854,0.003877307,0,0,0,0,0,4.216656,17.94322,0.1498854,0,19.77587,-4.924521,3181.593,25550.4
528,26.4,-5.107854,-0.1548188,0.004004924,0,0,0,0,0,4.399989,18.72336,0.1548188,0,20.73115,-5.107854,3255.068,25291.8
550,27.5,-5.29132,-0.1602106,0.004144403,0,0,0,0,0,4.583456,19.50407,0.1602106,0,21.69635,-5.29132,3336.076,25125
572,28.6,-5.47492,-0.1660079,0.004294368,0,0,0,0,0,4.767055,20.28534,0.1660078,0,22.67167,-5.47492,3423.241,25031.4
594,29.7,-5.657853,-0.1721094,0.004452207,0,0,0,0,0,4.949988,21.06378,0.1721094,0,23.653,-5.657853,3514.404,24992.4
616,30.8,-5.841186,-0.1783575,0.004613834,0,0,0,0,0,5.133321,21.84392,0.1783575,0,24.64623,-5.841186,3605.992,24974.7
638,31.9,-6.024652,-0.1844437,0.004771276,0,0,0,0,0,5.316787,22.62463,0.1844437,0,25.65016,-6.024652,3691.793,24935.7
660,33.0,-6.207852,-0.1912803,0.004948128,0,0,0,0,0,5.499987,23.4042,0.1912803,0,26.66279,-6.207852,3790.058,24998.6
682,34.1,-6.391318,-0.1983095,0.005129963,0,0,0,0,0,5.683452,24.1849,0.1983095,0,27.68728,-6.391318,3889.287,25080.6
704,35.2,-6.574651,-0.205389,0.005313099,0,0,0,0,0,5.866786,24.96505,0.205389,0,28.72161,-6.574651,3986.681,25164.3
726,36.3,-6.757717,-0.2117533,0.005477734,0,0,0,0,0,6.049851,25.74405,0.2117534,0,29.76523,-6.757717,4067.544,25159
748,37.4,-6.94145,-0.2181227,0.0056425,0,0,0,0,0,6.233584,26.52589,0.2181227,0,30.82371,-6.94145,4145.777,25151.9
770,38.5,-7.124649,-0.2243451,0.005803463,0,0,0,0,0,6.416785,27.30547,0.2243451,0,31.8904,-7.124649,4218.8,25130.8
792,39.6,-7.307849,-0.2307643,0.005969519,0,0,0,0,0,6.599984,28.08504,0.2307643,0,32.96858,-7.307849,4292.977,25132.3
814,40.7,-7.491448,-0.2374998,0.006143756,0,0,0,0,0,6.783583,28.86631,0.2374998,0,34.06091,-7.491448,4370.28,25165.8
836,41.8,-7.674648,-0.2445257,0.006325506,0,0,0,0,0,6.966783,29.64589,0.2445257,0,35.16289,-7.674648,4450.253,25229
858,42.9,-7.857981,-0.2526206,0.006534907,0,0,0,0,0,7.150116,30.42603,0.2526206,0,36.27796,-7.857981,4546.594,25395.9
880,44.0,-8.041181,-0.2613836,0.006761592,0,0,0,0,0,7.333316,31.2056,0.2613836,0,37.40478,-8.041181,4651.597,25620.4
902,45.1,-8.224647,-0.2701599,0.006988623,0,0,0,0,0,7.516782,31.98631,0.2701599,0,38.54611,-8.224647,4753.221,25834.3
924,46.2,-8.408247,-0.2792559,0.007223922,0,0,0,0,0,7.700382,32.76758,0.2792559,0,39.70146,-8.408247,4856.817,26067.4
946,47.3,-8.591313,-0.2882952,0.007457756,0,0,0,0,0,7.883448,33.54659,0.2882952,0,40.86691,-8.591313,4955.933,26286.2
968,48.4,-8.774779,-0.2977127,0.00770137,0,0,0,0,0,8.066914,34.32729,0.2977127,0,42.04868,-8.774779,5057.698,26527.6
990,49.5,-8.957845,-0.3080546,0.0079689,0,0,0,0,0,8.24998,35.1063,0.3080546,0,43.24196,-8.957845,5171.314,26840
1012,50.6,-9.141178,-0.3183847,0.008236123,0,0,0,0,0,8.433312,35.88644,0.3183847,0,44.45142,-9.141178,5280.472,27137
1034,51.7,-9.324777,-0.3291922,0.008515697,0,0,0,0,0,8.616911,36.66771,0.3291922,0,45.67748,-9.324777,5393.186,27460.3
1056,52.8,-9.508111,-0.339413,0.008780093,0,0,0,0,0,8.800246,37.44785,0.339413,0,46.91697,-9.508111,5492.137,27723
1078,53.9,-9.691177,-0.3494068,0.009038617,0,0,0,0,0,8.983313,38.22686,0.3494067,0,48.17015,-9.691177,5583.438,27957.7
1100,55.0,-9.874643,-0.3590255,0.009287439,0,0,0,0,0,9.166778,39.00756,0.3590255,0,49.44204,-9.874643,5664.635,28152.4
1122,56.1,-10.05784,-0.3707524,0.009590796,0,0,0,0,0,9.349977,39.78714,0.3707524,0,50.72841,-10.05784,5774.893,28502.4
1144,57.2,-10.24144,-0.381203,0.009861138,0,0,0,0,0,9.533576,40.56841,0.381203,0,52.03442,-10.24144,5860.631,28741.4
1166,58.3,-10.42491,-0.3929116,0.01016402,0,0,0,0,0,9.717044,41.34912,0.3929116,0,53.35676,-10.42491,5961.288,29064.8
1188,59.4,-10.60784,-0.404137,0.01045441,0,0,0,0,0,9.899976,42.12756,0.404137,0,54.69288,-10.60784,6050.22,29342.8
1210,60.5,-10.79131,-0.4157201,0.01075404,0,0,0,0,0,10.08344,42.90826,0.4157201,0,56.05108,-10.79131,6139.669,29634.6
1232,61.6,-10.97451,-0.4280349,0.01107261,0,0,0,0,0,10.26664,43.68784,0.4280349,0,57.42597,-10.97451,6235.224,29968
1254,62.7,-11.15797,-0.4405561,0.01139651,0,0,0,0,0,10.45011,44.46854,0.4405561,0,58.82206,-11.15797,6328.649,30303.1
1276,63.8,-11.34171,-0.4527504,0.01171196,0,0,0,0,0,10.63384,45.25039,0.4527504,0,60.23998,-11.34171,6412.252,30603.8
1298,64.9,-11.52464,-0.4646322,0.01201932,0,0,0,0,0,10.81677,46.02882,0.4646322,0,61.672,-11.52464,6486.97,30875.9
1320,66.0,-11.70784,-0.477239,0.01234544,0,0,0,0,0,10.99997,46.8084,0.477239,0,63.12696,-11.70784,6566.738,31185.4
1342,67.10001,-11.89144,-0.4902381,0.01268171,0,0,0,0,0,11.18357,47.58967,0.4902381,0,64.60665,-11.89144,6646.524,31508.9
1364,68.20001,-12.07464,-0.5028997,0.01300924,0,0,0,0,0,11.36677,48.36924,0.5028997,0,66.10527,-12.07464,6716.771,31801.8
1386,69.3,-12.2581,-0.5162996,0.01335588,0,0,0,0,0,11.55024,49.14995,0.5162996,0,67.6289,-12.2581,6791.472,32130.5
1408,70.4,-12.44144,-0.5296785,0.01370197,0,0,0,0,0,11.73357,49.93009,0.5296785,0,69.175,-12.44144,6860.564,32448.1
1430,71.5,-12.6245,-0.5436145,0.01406247,0,0,0,0,0,11.91664,50.7091,0.5436145,0,70.74306,-12.6245,6931.52,32790.2
1452,72.60001,-12.8081,-0.5588064,0.01445546,0,0,0,0,0,12.10024,51.49037,0.5588064,0,72.34079,-12.8081,7012.292,33195.2
1474,73.70001,-12.9913,-0.5751959,0.01487944,0,0,0,0,0,12.28344,52.26994,0.5751959,0,73.96089,-12.9913,7101.963,33659.1
1496,74.8,-13.17463,-0.591752,0.01530772,0,0,0,0,0,12.46677,53.05008,0.5917521,0,75.60888,-13.17463,7186.961,34118.8
1518,75.9,-13.3581,-0.6098993,0.01577716,0,0,0,0,0,12.65024,53.83079,0.6098993,0,77.28571,-13.3581,7284.19,34655.1
1540,77.0,-13.5413,-0.6295484,0.01628545,0,0,0,0,0,12.83344,54.61036,0.6295484,0,78.98863,-13.5413,7391.908,35260.9
1562,78.10001,-13.72463,-0.6490709,0.01679047,0,0,0,0,0,13.01677,55.3905,0.6490709,0,80.72234,-13.72463,7490.145,35842.3
1584,79.20001,-13.90797,-0.6697221,0.01732468,0,0,0,0,0,13.2001,56.17064,0.6697221,0,82.48664,-13.90797,7593.297,36469.1
1606,80.3,-14.0913,-0.6893626,0.01783275,0,0,0,0,0,13.38343,56.95078,0.6893626,0,84.28262,-14.0913,7676.86,37024.4
1628,81.4,-14.27463,-0.7107224,0.0183853,0,0,0,0,0,13.56677,57.73092,0.7107223,0,86.11144,-14.27463,7771.296,37655.7
1650,82.50001,-14.4581,-0.7345376,0.01900136,0,0,0,0,0,13.75023,58.51163,0.7345376,0,87.97571,-14.4581,7883.355,38398.2
1672,83.60001,-14.64143,-0.7581869,0.01961313,0,0,0,0,0,13.93357,59.29177,0.7581869,0,89.87399,-14.64143,7984.159,39113
1694,84.70001,-14.8245,-0.7833183,0.02026324,0,0,0,0,0,14.11663,60.07078,0.7833183,0,91.80617,-14.8245,8090.955,39885.5
1716,85.8,-15.00783,-0.8096283,0.02094384,0,0,0,0,0,14.29997,60.85092,0.8096282,0,93.77932,-15.00783,8199.322,40696.6
1738,86.9,-15.19143,-0.8401358,0.02173303,0,0,0,0,0,14.48356,61.63219,0.8401358,0,95.79512,-15.19143,8338.487,41694.8
1760,88.00001,-15.3749,-0.8705777,0.02252051,0,0,0,0,0,14.66703,62.4129,0.8705776,0,97.85093,-15.3749,8464.806,42665.1
1782,89.10001,-15.5577,-0.9024654,0.0233454,0,0,0,0,0,14.84983,63.19077,0.9024653,0,99.94214,-15.5577,8593.262,43683.4
1804,90.16801,-15.73596,-0.9366332,0.02422927,0,0,0,0,0,15.0281,63.94935,0.9366332,0,102.0245,-15.73596,8734.808,44799.5