Folder: MatSci/GFBaking/em (part 4)

File: 1_g13_5.csv
,Time sec,Extension mm,Load kgf,Compressive stress MPa,Cycle Count ,Total Cycle Count ,Repetitions Count ,Marked Data ,PIP Count ,Compressive extension mm,Compressive strain %,Compressive load kgf,Displacement (Strain 1) mm,True strain %,Corrected Position mm,True stress Pa,Elastic Modulus
0,0.0,0.0,-0.01755855,0.0004742884,0,0,0,0,0,0.0,0.0,0.01755855,0,0.0,0.0,474.2884,inf
22,1.1,-0.1833329,-0.03174105,0.0008573837,0,0,0,0,0,0.1833329,0.7629418,0.03174105,0,0.7658671,-0.1833329,850.8423,124448
44,2.2,-0.3666658,-0.04210806,0.001137416,0,0,0,0,0,0.3666658,1.525884,0.04210806,0,1.537645,-0.3666658,1120.06,82547.2
66,3.3,-0.5503987,-0.05214982,0.001408662,0,0,0,0,0,0.5503986,2.29049,0.05214982,0,2.317129,-0.5503987,1376.396,68105.6
88,4.4,-0.7335982,-0.06137461,0.00165784,0,0,0,0,0,0.7335982,3.052877,0.06137461,0,3.100448,-0.7335982,1607.228,60136.5
110,5.5,-0.9167978,-0.07088644,0.001914772,0,0,0,0,0,0.9167978,3.815264,0.07088643,0,3.889951,-0.9167978,1841.718,55577.2
132,6.6,-1.099997,-0.07965488,0.002151623,0,0,0,0,0,1.099997,4.577651,0.07965487,0,4.685737,-1.099997,2053.13,52050.9
154,7.7,-1.28333,-0.08821005,0.002382714,0,0,0,0,0,1.28333,5.340593,0.08821005,0,5.488493,-1.28333,2255.463,49406.8
176,8.8,-1.46693,-0.09592395,0.002591081,0,0,0,0,0,1.46693,6.104644,0.09592395,0,6.298926,-1.46693,2432.905,47002.9
198,9.900001,-1.650263,-0.1043781,0.002819442,0,0,0,0,0,1.650263,6.867586,0.1043781,0,7.11479,-1.650263,2625.815,45463.6
220,11.0,-1.833196,-0.1114266,0.003009835,0,0,0,0,0,1.833196,7.628863,0.1114266,0,7.935563,-1.833196,2780.219,43690.5
242,12.1,-2.016795,-0.117432,0.003172051,0,0,0,0,0,2.016795,8.392915,0.117432,0,8.766157,-2.016795,2905.823,41853.5
264,13.2,-2.199995,-0.1245889,0.003365373,0,0,0,0,0,2.199995,9.155302,0.1245889,0,9.601875,-2.199995,3057.263,40706.6
286,14.3,-2.383594,-0.1296559,0.003502243,0,0,0,0,0,2.383594,9.919353,0.1296559,0,10.44648,-2.383594,3154.843,39099.1
308,15.4,-2.567061,-0.1337931,0.003613995,0,0,0,0,0,2.56706,10.68285,0.1337931,0,11.29767,-2.567061,3227.917,37463.2
330,16.5,-2.749993,-0.1384423,0.003739579,0,0,0,0,0,2.749993,11.44413,0.1384423,0,12.15365,-2.749993,3311.617,36186.3
352,17.6,-2.933326,-0.1422822,0.003843302,0,0,0,0,0,2.933326,12.20707,0.1422822,0,13.01892,-2.933326,3374.148,34865.6
374,18.7,-3.116659,-0.1471822,0.00397566,0,0,0,0,0,3.116659,12.97001,0.1471822,0,13.89174,-3.116659,3460.016,33944.8
396,19.8,-3.300125,-0.1521658,0.004110274,0,0,0,0,0,3.300125,13.73351,0.1521658,0,14.77289,-3.300125,3545.789,33143.2
418,20.9,-3.483592,-0.1567454,0.004233979,0,0,0,0,0,3.483592,14.497,0.1567454,0,15.66188,-3.483592,3620.178,32342.6
440,22.0,-3.666658,-0.160043,0.004323054,0,0,0,0,0,3.666658,15.25884,0.160043,0,16.55687,-3.666658,3663.406,31374.3
462,23.1,-3.849991,-0.1632148,0.00440873,0,0,0,0,0,3.849991,16.02178,0.1632148,0,17.46127,-3.849991,3702.373,30472.4
484,24.2,-4.03359,-0.1658292,0.004479348,0,0,0,0,0,4.03359,16.78583,0.1658292,0,18.37525,-4.03359,3727.452,29551.3
506,25.3,-4.21679,-0.1684619,0.004550464,0,0,0,0,0,4.21679,17.54822,0.1684619,0,19.29565,-4.21679,3751.938,28716.2
528,26.4,-4.400256,-0.1712934,0.004626947,0,0,0,0,0,4.400256,18.31171,0.1712934,0,20.22596,-4.400256,3779.674,27981.4
550,27.5,-4.583456,-0.1747746,0.004720982,0,0,0,0,0,4.583456,19.0741,0.1747746,0,21.16363,-4.583456,3820.497,27409
572,28.6,-4.766522,-0.1784846,0.004821194,0,0,0,0,0,4.766522,19.83593,0.1784846,0,22.10948,-4.766522,3864.865,26915.7
594,29.7,-4.950255,-0.1816259,0.004906047,0,0,0,0,0,4.950255,20.60054,0.1816259,0,23.06786,-4.950255,3895.375,26372.9
616,30.8,-5.133454,-0.1840762,0.004972233,0,0,0,0,0,5.133454,21.36293,0.1840762,0,24.03269,-5.133454,3910.018,25774.8
638,31.9,-5.316787,-0.1865007,0.005037725,0,0,0,0,0,5.316787,22.12587,0.1865007,0,25.00763,-5.316787,3923.084,25213.8
660,33.0,-5.500386,-0.1887037,0.00509723,0,0,0,0,0,5.500386,22.88992,0.1887037,0,25.99362,-5.500386,3930.479,24660.1
682,34.1,-5.683453,-0.1898628,0.005128541,0,0,0,0,0,5.683453,23.65175,0.1898628,0,26.98651,-5.683453,3915.551,24012.4
704,35.2,-5.866919,-0.1905762,0.005147809,0,0,0,0,0,5.866919,24.41525,0.1905762,0,27.99156,-5.866919,3890.959,23348.9
726,36.3,-6.049985,-0.1917072,0.005178361,0,0,0,0,0,6.049985,25.17708,0.1917072,0,29.00459,-6.049985,3874.601,22776.7
748,37.4,-6.233318,-0.193018,0.005213766,0,0,0,0,0,6.233318,25.94002,0.1930179,0,30.02949,-6.233318,3861.314,22258
770,38.5,-6.416918,-0.1949283,0.00526537,0,0,0,0,0,6.416918,26.70407,0.1949283,0,31.06652,-6.416918,3859.301,21835.1
792,39.6,-6.600117,-0.1969425,0.005319777,0,0,0,0,0,6.600117,27.46646,0.1969426,0,32.11211,-6.600117,3858.623,21448.4
814,40.7,-6.783317,-0.1985868,0.005364192,0,0,0,0,0,6.783317,28.22885,0.1985868,0,33.16876,-6.783317,3849.942,21043.4
836,41.8,-6.96665,-0.1974754,0.00533417,0,0,0,0,0,6.96665,28.99179,0.1974754,0,34.23747,-6.96665,3787.699,20374.9
858,42.9,-7.149983,-0.1964483,0.005306427,0,0,0,0,0,7.149983,29.75473,0.1964483,0,35.31772,-7.149983,3727.514,19749.2
880,44.0,-7.333715,-0.1936492,0.005230817,0,0,0,0,0,7.333715,30.51934,0.1936492,0,36.41217,-7.333715,3634.407,18980.1
902,45.1,-7.517048,-0.1917521,0.005179573,0,0,0,0,0,7.517048,31.28228,0.1917521,0,37.51631,-7.517048,3559.284,18335.8
924,46.2,-7.699981,-0.1926404,0.005203568,0,0,0,0,0,7.699981,32.04356,0.1926404,0,38.63032,-7.699981,3536.16,17983.1
946,47.3,-7.883447,-0.1948654,0.005263669,0,0,0,0,0,7.883447,32.80705,0.1948654,0,39.76019,-7.883447,3536.814,17767.5
968,48.4,-8.066647,-0.1976048,0.005337666,0,0,0,0,0,8.066647,33.56944,0.1976048,0,40.9013,-8.066647,3545.841,17608.1
990,49.5,-8.250247,-0.2012333,0.00543568,0,0,0,0,0,8.250247,34.33349,0.2012333,0,42.05812,-8.250247,3569.421,17532.4
1012,50.6,-8.433846,-0.2043356,0.005519476,0,0,0,0,0,8.433846,35.09754,0.2043356,0,43.22847,-8.433846,3582.276,17415.1
1034,51.7,-8.616513,-0.2068046,0.005586168,0,0,0,0,0,8.616512,35.85771,0.2068046,0,44.40663,-8.616513,3583.096,17251.9
1056,52.8,-8.800112,-0.2097108,0.00566467,0,0,0,0,0,8.800112,36.62176,0.2097108,0,45.60496,-8.800112,3590.168,17129.3
1078,53.9,-8.983445,-0.214107,0.00578342,0,0,0,0,0,8.983445,37.38471,0.214107,0,46.81606,-8.983445,3621.305,17131.5
1100,55.0,-9.166911,-0.2187385,0.005908525,0,0,0,0,0,9.166911,38.1482,0.2187385,0,48.0429,-9.166911,3654.529,17151.8
1122,56.1,-9.350377,-0.2234017,0.006034487,0,0,0,0,0,9.350377,38.9117,0.2234017,0,49.28498,-9.350377,3686.366,17173.7
1144,57.2,-9.53331,-0.2279924,0.006158491,0,0,0,0,0,9.53331,39.67298,0.2279924,0,50.539,-9.53331,3715.234,17190.3
1166,58.3,-9.716776,-0.2312891,0.00624754,0,0,0,0,0,9.716776,40.43647,0.2312891,0,51.81267,-9.716776,3721.255,17109.6
1188,59.4,-9.900109,-0.2343352,0.00632982,0,0,0,0,0,9.900109,41.19941,0.2343352,0,53.10183,-9.900109,3721.971,17013.9
1210,60.5,-10.08344,-0.2390399,0.006456904,0,0,0,0,0,10.08344,41.96236,0.2390399,0,54.40784,-10.08344,3747.435,17040
1232,61.6,-10.26691,-0.2446334,0.006607994,0,0,0,0,0,10.26691,42.72585,0.2446334,0,55.73208,-10.26691,3784.673,17127.1
1254,62.7,-10.45011,-0.2496761,0.006744207,0,0,0,0,0,10.45011,43.48824,0.2496761,0,57.07214,-10.45011,3811.27,17173.7
1276,63.8,-10.63331,-0.2545451,0.006875726,0,0,0,0,0,10.63331,44.25063,0.2545451,0,58.4304,-10.63331,3833.174,17206.9
1298,64.9,-10.81704,-0.2609803,0.007049554,0,0,0,0,0,10.81704,45.01524,0.2609803,0,59.8114,-10.81704,3876.181,17342.3
1320,66.0,-11.00011,-0.2674123,0.007223293,0,0,0,0,0,11.00011,45.77706,0.2674123,0,61.20662,-11.00011,3916.682,17474
1342,67.10001,-11.18344,-0.2731328,0.007377815,0,0,0,0,0,11.18344,46.54001,0.2731328,0,62.62366,-11.18344,3944.179,17555.2
1364,68.20001,-11.36704,-0.279564,0.007551533,0,0,0,0,0,11.36704,47.30406,0.279564,0,64.06317,-11.36704,3979.351,17678.3
1386,69.3,-11.55024,-0.2833333,0.00765335,0,0,0,0,0,11.55024,48.06644,0.2833334,0,65.52051,-11.55024,3974.657,17632.5
1408,70.4,-11.73357,-0.2882856,0.007787119,0,0,0,0,0,11.73357,48.82938,0.2882856,0,67.00047,-11.73357,3984.717,17660.4
1430,71.5,-11.91677,-0.2905354,0.00784789,0,0,0,0,0,11.91677,49.59177,0.2905354,0,68.50158,-11.91677,3955.982,17524.6
1452,72.60001,-12.09997,-0.2929343,0.007912691,0,0,0,0,0,12.09997,50.35416,0.2929343,0,70.02556,-12.09997,3928.322,17401.8
1474,73.70001,-12.2837,-0.2985593,0.00806463,0,0,0,0,0,12.2837,51.11877,0.2985593,0,71.57766,-12.2837,3942.091,17470.6
1496,74.8,-12.4669,-0.3029714,0.008183811,0,0,0,0,0,12.4669,51.88115,0.3029714,0,73.14963,-12.4669,3937.955,17468.3
1518,75.9,-12.6501,-0.3067768,0.008286601,0,0,0,0,0,12.6501,52.64354,0.3067768,0,74.7467,-12.6501,3924.241,17431.5
1540,77.0,-12.8333,-0.3127568,0.008448132,0,0,0,0,0,12.8333,53.40593,0.3127568,0,76.36968,-12.8333,3936.329,17517.6
1562,78.10001,-13.01663,-0.3188366,0.008612357,0,0,0,0,0,13.01663,54.16887,0.3188366,0,78.02066,-13.01663,3947.141,17606.7
1584,79.20001,-13.20023,-0.3240326,0.008752712,0,0,0,0,0,13.20023,54.93292,0.3240326,0,79.70182,-13.20023,3944.592,17644.7
1606,80.3,-13.3837,-0.3296642,0.008904831,0,0,0,0,0,13.3837,55.69642,0.3296642,0,81.41046,-13.3837,3945.159,17705.3
1628,81.4,-13.56663,-0.3355653,0.009064231,0,0,0,0,0,13.56663,56.4577,0.3355653,0,83.14372,-13.56663,3946.775,17779.2
1650,82.50001,-13.74997,-0.3424184,0.009249346,0,0,0,0,0,13.74997,57.22064,0.3424185,0,84.91144,-13.74997,3956.811,17900.4
1672,83.60001,-13.93317,-0.3517538,0.00950151,0,0,0,0,0,13.93317,57.98302,0.3517538,0,86.70964,-13.93317,3992.247,18146.6
1694,84.70001,-14.1169,-0.3625174,0.009792255,0,0,0,0,0,14.1169,58.74763,0.3625174,0,88.54616,-14.1169,4039.537,18458.5
1716,85.8,-14.30037,-0.3729968,0.01007532,0,0,0,0,0,14.30037,59.51113,0.3729968,0,90.4143,-14.30037,4079.385,18748.4
1738,86.9,-14.4833,-0.3820345,0.01031945,0,0,0,0,0,14.4833,60.2724,0.3820345,0,92.31241,-14.4833,4099.668,18960.2
1760,88.00001,-14.66676,-0.3919352,0.01058688,0,0,0,0,0,14.66676,61.0359,0.3919352,0,94.25295,-14.66676,4125.084,19208.2
1782,89.10001,-14.8501,-0.4019675,0.01085788,0,0,0,0,0,14.8501,61.79884,0.4019675,0,96.23043,-14.8501,4147.834,19456.7
1803,90.14401,-15.02383,-0.4136952,0.01117466,0,0,0,0,0,15.02383,62.52184,0.4136952,0,98.14117,-15.02383,4188.058,19792.8

File: 1_g13_6.csv
,Time sec,Extension mm,Load kgf,Compressive stress MPa,Cycle Count ,Total Cycle Count ,Repetitions Count ,Marked Data ,PIP Count ,Compressive extension mm,Compressive strain %,Compressive load kgf,Displacement (Strain 1) mm,True strain %,Corrected Position mm,True stress Pa,Elastic Modulus
0,0.0,0.0,-0.01027031,0.0002616129,0,0,0,0,0,0.0,0.0,0.01027031,0,0.0,0.0,261.6129,inf
22,1.1,-0.1834662,-0.02103453,0.000535807,0,0,0,0,0,0.1834662,0.7966402,0.02103453,0,0.7998303,-0.1834662,531.5385,82410.8
44,2.2,-0.3669325,-0.03217127,0.0008194903,0,0,0,0,0,0.3669325,1.59328,0.03217127,0,1.606109,-0.3669325,806.4335,63021.6
66,3.3,-0.550132,-0.04681661,0.001192547,0,0,0,0,0,0.550132,2.388762,0.04681661,0,2.417756,-0.550132,1164.06,61170.3
88,4.4,-0.7334649,-0.06456882,0.001644744,0,0,0,0,0,0.7334649,3.184824,0.06456883,0,3.236642,-0.7334649,1592.362,63277.7
110,5.5,-0.9167978,-0.08212763,0.002092015,0,0,0,0,0,0.9167978,3.980885,0.08212762,0,4.06229,-0.9167978,2008.734,64390.7
132,6.6,-1.100131,-0.1000458,0.00254844,0,0,0,0,0,1.100131,4.776946,0.1000458,0,4.894811,-1.100131,2426.702,65367.5
154,7.7,-1.283597,-0.1171451,0.002984006,0,0,0,0,0,1.283597,5.573586,0.1171451,0,5.734934,-1.283597,2817.69,65599.8
176,8.8,-1.46693,-0.1335533,0.003401968,0,0,0,0,0,1.46693,6.369648,0.1335533,0,6.581558,-1.46693,3185.275,65441.4
198,9.900001,-1.649863,-0.1488199,0.003790849,0,0,0,0,0,1.649863,7.163971,0.1488199,0,7.433538,-1.649863,3519.274,64836.6
220,11.0,-1.833329,-0.1631596,0.004156121,0,0,0,0,0,1.833329,7.960612,0.1631596,0,8.295357,-1.833329,3825.268,63970.5
242,12.1,-2.016795,-0.1763017,0.004490886,0,0,0,0,0,2.016795,8.757252,0.1763017,0,9.164667,-2.016795,4097.608,62835.1
264,13.2,-2.200261,-0.1870325,0.00476423,0,0,0,0,0,2.200261,9.553891,0.1870325,0,10.0416,-2.200261,4309.06,61101.3
286,14.3,-2.383594,-0.1977986,0.00503847,0,0,0,0,0,2.383594,10.34995,0.1977986,0,10.92565,-2.383594,4516.991,59648.3
308,15.4,-2.566527,-0.2077324,0.005291513,0,0,0,0,0,2.566527,11.14428,0.2077324,0,11.81562,-2.566527,4701.812,58178.9
330,16.5,-2.750127,-0.2157027,0.005494537,0,0,0,0,0,2.750127,11.9415,0.2157027,0,12.71688,-2.750127,4838.407,56378.1
352,17.6,-2.93346,-0.222674,0.005672115,0,0,0,0,0,2.93346,12.73756,0.222674,0,13.625,-2.93346,4949.626,54562.8
374,18.7,-3.116926,-0.2264533,0.005768385,0,0,0,0,0,3.116926,13.5342,0.2264533,0,14.54212,-3.116926,4987.68,52222.7
396,19.8,-3.300392,-0.2291277,0.005836509,0,0,0,0,0,3.300392,14.33084,0.2291277,0,15.46773,-3.300392,5000.088,49902.2
418,20.9,-3.483458,-0.2313431,0.005892942,0,0,0,0,0,3.483458,15.12574,0.2313431,0,16.39993,-3.483458,5001.591,47736.8
440,22.0,-3.666791,-0.2335886,0.005950139,0,0,0,0,0,3.666791,15.9218,0.2335886,0,17.34229,-3.666791,5002.77,45790.2
462,23.1,-3.850257,-0.2363788,0.006021215,0,0,0,0,0,3.850257,16.71844,0.2363788,0,18.29431,-3.850257,5014.561,44129.2
484,24.2,-4.033457,-0.2392223,0.006093646,0,0,0,0,0,4.033457,17.51393,0.2392223,0,19.25407,-4.033457,5026.409,42631.6
506,25.3,-4.216923,-0.241947,0.00616305,0,0,0,0,0,4.216923,18.31056,0.241947,0,20.22455,-4.216923,5034.561,41241.3
528,26.4,-4.400122,-0.2447471,0.006234379,0,0,0,0,0,4.400123,19.10605,0.2447471,0,21.20311,-4.400122,5043.236,39981.6
550,27.5,-4.583322,-0.2481462,0.006320962,0,0,0,0,0,4.583323,19.90153,0.2481462,0,22.19134,-4.583322,5062.994,38916.6
572,28.6,-4.766922,-0.2519537,0.006417951,0,0,0,0,0,4.766922,20.69875,0.2519538,0,23.19163,-4.766922,5089.515,37991.8
594,29.7,-4.950122,-0.2548885,0.006492706,0,0,0,0,0,4.950121,21.49423,0.2548884,0,24.19981,-4.950122,5097.149,37011.9
616,30.8,-5.133454,-0.2585731,0.006586563,0,0,0,0,0,5.133454,22.29029,0.2585731,0,25.219,-5.133454,5118.399,36206
638,31.9,-5.317054,-0.2619943,0.006673712,0,0,0,0,0,5.317054,23.08751,0.2619943,0,26.25019,-5.317054,5132.918,35418.3
660,33.0,-5.50012,-0.264063,0.006726406,0,0,0,0,0,5.50012,23.88241,0.264063,0,27.28909,-5.50012,5119.978,34509.8
682,34.1,-5.683586,-0.2664572,0.006787394,0,0,0,0,0,5.683586,24.67905,0.2664572,0,28.34119,-5.683586,5112.329,33698.6
704,35.2,-5.866652,-0.2676092,0.006816739,0,0,0,0,0,5.866652,25.47396,0.2676092,0,29.40216,-5.866652,5080.246,32788.2
726,36.3,-6.050119,-0.2686334,0.006842826,0,0,0,0,0,6.050119,26.2706,0.2686334,0,30.47685,-6.050119,5045.175,31915.6
748,37.4,-6.233585,-0.2697386,0.00687098,0,0,0,0,0,6.233584,27.06724,0.2697386,0,31.56322,-6.233585,5011.195,31103.7
770,38.5,-6.416918,-0.2698671,0.006874252,0,0,0,0,0,6.416918,27.8633,0.2698671,0,32.66072,-6.416918,4958.859,30229.5
792,39.6,-6.600117,-0.2698043,0.006872653,0,0,0,0,0,6.600117,28.65878,0.2698043,0,33.76959,-6.600117,4903.034,29383.6
814,40.7,-6.78345,-0.2688652,0.006848731,0,0,0,0,0,6.78345,29.45484,0.2688652,0,34.89171,-6.78345,4831.448,28489.9
836,41.8,-6.96665,-0.2696185,0.006867921,0,0,0,0,0,6.96665,30.25032,0.2696185,0,36.02574,-6.96665,4790.353,27818.5
858,42.9,-7.150383,-0.2702234,0.006883328,0,0,0,0,0,7.150383,31.04812,0.2702234,0,37.17614,-7.150383,4746.184,27164.5
880,44.0,-7.333582,-0.2719478,0.006927254,0,0,0,0,0,7.333582,31.84361,0.2719478,0,38.33652,-7.333582,4721.367,26654.9
902,45.1,-7.516515,-0.2731735,0.006958477,0,0,0,0,0,7.516515,32.63793,0.2731735,0,39.50881,-7.516515,4687.374,26123.4
924,46.2,-7.700115,-0.275889,0.007027647,0,0,0,0,0,7.700114,33.43515,0.275889,0,40.69935,-7.700115,4677.943,25754
946,47.3,-7.883447,-0.2804248,0.007143187,0,0,0,0,0,7.883447,34.23121,0.2804248,0,41.90247,-7.883447,4697.988,25568.6
968,48.4,-8.066914,-0.285446,0.007271089,0,0,0,0,0,8.066914,35.02785,0.285446,0,43.12115,-8.066914,4724.183,25434.5
990,49.5,-8.250247,-0.2908912,0.007409793,0,0,0,0,0,8.250247,35.82391,0.2908912,0,44.35395,-8.250247,4755.316,25343.8
1012,50.6,-8.433313,-0.2966154,0.007555605,0,0,0,0,0,8.433313,36.61882,0.2966154,0,45.60031,-8.433313,4788.832,25281.5
1034,51.7,-8.616779,-0.3021498,0.007696581,0,0,0,0,0,8.616779,37.41545,0.3021498,0,46.86518,-8.616779,4816.87,25204.9
1056,52.8,-8.800112,-0.3065591,0.007808898,0,0,0,0,0,8.800112,38.21151,0.3065591,0,48.14532,-8.800112,4825.0,25039.9
1078,53.9,-8.983445,-0.3106721,0.007913669,0,0,0,0,0,8.983445,39.00758,0.3106721,0,49.44206,-8.983445,4826.738,24858
1100,55.0,-9.166911,-0.3141069,0.008001163,0,0,0,0,0,9.166911,39.80422,0.3141069,0,50.75679,-9.166911,4816.362,24629.8
1122,56.1,-9.349978,-0.3194857,0.008138175,0,0,0,0,0,9.349977,40.59912,0.3194857,0,52.08612,-9.349978,4834.148,24561.1
1144,57.2,-9.533443,-0.3259519,0.008302887,0,0,0,0,0,9.533443,41.39576,0.3259519,0,53.43631,-9.533443,4865.844,24576
1166,58.3,-9.716909,-0.3317154,0.008449699,0,0,0,0,0,9.716909,42.1924,0.3317154,0,54.80499,-9.716909,4884.568,24538.3
1188,59.4,-9.899976,-0.3373173,0.008592393,0,0,0,0,0,9.899976,42.9873,0.3373173,0,56.18962,-9.899976,4898.755,24491.3
1210,60.5,-10.08358,-0.3444177,0.008773261,0,0,0,0,0,10.08358,43.78452,0.3444177,0,57.59781,-10.08358,4931.93,24551.5
1232,61.6,-10.26691,-0.350164,0.008919635,0,0,0,0,0,10.26691,44.58059,0.350164,0,59.02402,-10.26691,4943.21,24515.4
1254,62.7,-10.44997,-0.3560287,0.009069024,0,0,0,0,0,10.44998,45.37549,0.3560286,0,60.46875,-10.44997,4953.91,24489.3
1276,63.8,-10.63357,-0.3657752,0.009317294,0,0,0,0,0,10.63357,46.1727,0.3657752,0,61.93895,-10.63357,5015.247,24725.4
1298,64.9,-10.81677,-0.3767793,0.0095976,0,0,0,0,0,10.81677,46.96819,0.3767793,0,63.42782,-10.81677,5089.781,25037.8
1320,66.0,-11.00011,-0.3870586,0.009859441,0,0,0,0,0,11.00011,47.76425,0.3870586,0,64.9403,-11.00011,5150.153,25292.2
1342,67.10001,-11.18357,-0.3978187,0.01013353,0,0,0,0,0,11.18357,48.56089,0.3978187,0,66.47714,-11.18357,5212.597,25568.9
1364,68.20001,-11.36677,-0.4077812,0.0103873,0,0,0,0,0,11.36677,49.35637,0.4077812,0,68.03568,-11.36677,5260.507,25786.8
1386,69.3,-11.55011,-0.4168625,0.01061863,0,0,0,0,0,11.55011,50.15243,0.4168625,0,69.62005,-11.55011,5293.128,25942.6
1408,70.4,-11.7333,-0.4244191,0.01081111,0,0,0,0,0,11.7333,50.94791,0.4244191,0,71.22875,-11.7333,5303.077,26000.5
1430,71.5,-11.91677,-0.4313477,0.01098761,0,0,0,0,0,11.91677,51.74455,0.4313477,0,72.86615,-11.91677,5302.118,26018.1
1452,72.60001,-12.10037,-0.4404582,0.01121968,0,0,0,0,0,12.10037,52.54177,0.4404582,0,74.53203,-12.10037,5324.659,26164.6
1474,73.70001,-12.2837,-0.4503257,0.01147103,0,0,0,0,0,12.2837,53.33783,0.4503257,0,76.22365,-12.2837,5352.63,26351.5
1496,74.8,-12.46677,-0.4616765,0.01176016,0,0,0,0,0,12.46677,54.13274,0.4616765,0,77.94186,-12.46677,5394.065,26619
1518,75.9,-12.6501,-0.473021,0.01204914,0,0,0,0,0,12.6501,54.9288,0.473021,0,79.69267,-12.6501,5430.691,26877.8
1540,77.0,-12.8333,-0.4840065,0.01232897,0,0,0,0,0,12.8333,55.72428,0.4840065,0,81.47338,-12.8333,5458.74,27109.4
1562,78.10001,-13.0169,-0.4951478,0.01261277,0,0,0,0,0,13.0169,56.5215,0.4951479,0,83.29037,-13.0169,5483.843,27342.3
1584,79.20001,-13.20023,-0.5054248,0.01287455,0,0,0,0,0,13.20023,57.31756,0.5054247,0,85.13826,-13.20023,5495.172,27522.1
1606,80.3,-13.3833,-0.5165241,0.01315728,0,0,0,0,0,13.3833,58.11246,0.5165241,0,87.01819,-13.3833,5511.261,27741.8
1628,81.4,-13.5669,-0.5282639,0.01345633,0,0,0,0,0,13.5669,58.90968,0.5282639,0,88.93977,-13.5669,5529.247,27988.4
1650,82.50001,-13.7501,-0.5374577,0.01369052,0,0,0,0,0,13.7501,59.70517,0.5374577,0,90.89469,-13.7501,5516.571,28096.1
1672,83.60001,-13.9337,-0.5481757,0.01396353,0,0,0,0,0,13.9337,60.50239,0.5481756,0,92.89299,-13.9337,5515.262,28278.8
1694,84.70001,-14.11703,-0.5609783,0.01428965,0,0,0,0,0,14.11703,61.29845,0.5609783,0,94.92905,-14.11703,5530.317,28563.4
1716,85.8,-14.29997,-0.5750082,0.01464703,0,0,0,0,0,14.29997,62.09277,0.5750082,0,97.00284,-14.29997,5552.284,28903.2
1738,86.9,-14.48343,-0.5908218,0.01504985,0,0,0,0,0,14.48343,62.88941,0.5908217,0,99.12678,-14.48343,5585.086,29321.9
1760,88.00001,-14.66676,-0.6088091,0.01550803,0,0,0,0,0,14.66676,63.68547,0.6088091,0,101.2952,-14.66676,5631.669,29836.9
1782,89.10001,-14.85023,-0.6291635,0.01602652,0,0,0,0,0,14.85023,64.48211,0.6291636,0,103.5134,-14.85023,5692.28,30453.5
1804,90.20001,-15.03356,-0.6546151,0.01667484,0,0,0,0,0,15.03356,65.27818,0.6546151,0,105.7802,-15.03356,5789.808,31299.1
1807,90.314,-15.05263,-0.6571267,0.01673881,0,0,0,0,0,15.05263,65.36096,0.6571267,0,106.0189,-15.05263,5798.164,31379.4