Folder: MatSci/GFBaking/em (part 7)

File: xg6.csv
,Time sec,Extension mm,Load kgf,Compressive stress MPa,Cycle Count ,Total Cycle Count ,Repetitions Count ,Marked Data ,PIP Count ,Compressive extension mm,Compressive strain %,Compressive load kgf,Displacement (Strain 1) mm,True strain %,Corrected Position mm,True stress Pa,Elastic Modulus
0,0.0,-0.000133333,-0.01863685,0.0005043532,0,0,0,0,0,0.0,0.0,0.01863685,0,0.0,-0.000133333,504.3532,inf
22,1.1,-0.1834662,-0.03773367,0.001021154,0,0,0,0,0,0.1833329,0.6765051,0.03773367,0,0.6788038,-0.1834662,1014.246,147944
44,2.2,-0.3667991,-0.05350901,0.001448069,0,0,0,0,0,0.3666658,1.35301,0.053509,0,1.362247,-0.3667991,1428.476,104897
66,3.3,-0.5503987,-0.06947653,0.001880184,0,0,0,0,0,0.5502654,2.030499,0.06947654,0,2.051398,-0.5503987,1842.007,90755.6
88,4.4,-0.7335982,-0.08532354,0.002309038,0,0,0,0,0,0.7334649,2.706512,0.08532353,0,2.743813,-0.7335982,2246.544,83617.4
110,5.5,-0.9169311,-0.1016089,0.002749756,0,0,0,0,0,0.9167977,3.383018,0.1016089,0,3.441566,-0.9169311,2656.731,79664.6
132,6.6,-1.100264,-0.1178833,0.003190174,0,0,0,0,0,1.100131,4.059523,0.1178833,0,4.144221,-1.100264,3060.669,77022.1
154,7.7,-1.283197,-0.1344946,0.003639713,0,0,0,0,0,1.283064,4.734552,0.1344946,0,4.8503,-1.283197,3467.389,75346.6
176,8.8,-1.46693,-0.1514063,0.00409738,0,0,0,0,0,1.466797,5.412533,0.1514063,0,5.564521,-1.46693,3875.608,74196.1
198,9.900001,-1.650263,-0.168591,0.004562433,0,0,0,0,0,1.650129,6.089038,0.1685909,0,6.282306,-1.650263,4284.625,73438.5
220,11.0,-1.833462,-0.1848128,0.005001432,0,0,0,0,0,1.833329,6.765051,0.1848128,0,7.004754,-1.833462,4663.083,72460.1
242,12.1,-2.016929,-0.2004887,0.005425655,0,0,0,0,0,2.016795,7.442049,0.2004887,0,7.733523,-2.016929,5021.875,71455.5
264,13.2,-2.199995,-0.2159196,0.005843247,0,0,0,0,0,2.199861,8.117569,0.2159196,0,8.466035,-2.199995,5368.917,70551.2
286,14.3,-2.383328,-0.2307201,0.006243781,0,0,0,0,0,2.383194,8.794075,0.2307201,0,9.205033,-2.383328,5694.698,69587.8
308,15.4,-2.567061,-0.2447682,0.006623953,0,0,0,0,0,2.566927,9.472056,0.2447682,0,9.951162,-2.567061,5996.528,68540.7
330,16.5,-2.750127,-0.2576412,0.006972325,0,0,0,0,0,2.749993,10.14758,0.2576412,0,10.70016,-2.750127,6264.803,67342.8
352,17.6,-2.93346,-0.2691788,0.007284557,0,0,0,0,0,2.933326,10.82408,0.2691788,0,11.45592,-2.93346,6496.07,65961.1
374,18.7,-3.116792,-0.2803398,0.007586597,0,0,0,0,0,3.116659,11.50059,0.2803398,0,12.21743,-3.116792,6714.094,64655.1
396,19.8,-3.299992,-0.2902952,0.007856012,0,0,0,0,0,3.299858,12.1766,0.2902952,0,12.98422,-3.299992,6899.417,63234.2
418,20.9,-3.483725,-0.2997293,0.008111319,0,0,0,0,0,3.483591,12.85458,0.2997293,0,13.7592,-3.483725,7068.643,61845.7
440,22.0,-3.666924,-0.3073129,0.008316547,0,0,0,0,0,3.666791,13.53059,0.3073129,0,14.53795,-3.666924,7191.269,60242.4
462,23.1,-3.850124,-0.3138633,0.008493814,0,0,0,0,0,3.84999,14.20661,0.3138633,0,15.32282,-3.850124,7287.131,58598.7
484,24.2,-4.033457,-0.3180807,0.008607947,0,0,0,0,0,4.033323,14.88311,0.3180807,0,16.11447,-4.033457,7326.817,56686.8
506,25.3,-4.216657,-0.3221978,0.008719364,0,0,0,0,0,4.216523,15.55913,0.3221978,0,16.91186,-4.216657,7362.707,54925.7
528,26.4,-4.400389,-0.325545,0.008809946,0,0,0,0,0,4.400256,16.23711,0.325545,0,17.71801,-4.400389,7379.466,53179
550,27.5,-4.583456,-0.327558,0.008864423,0,0,0,0,0,4.583323,16.91263,0.327558,0,18.52775,-4.583456,7365.216,51370.6
572,28.6,-4.766922,-0.3290781,0.00890556,0,0,0,0,0,4.766789,17.58963,0.3290781,0,19.34589,-4.766922,7339.105,49622.7
594,29.7,-4.950122,-0.3300168,0.008930963,0,0,0,0,0,4.949988,18.26564,0.3300168,0,20.16957,-4.950122,7299.665,47922.5
616,30.8,-5.133187,-0.3296303,0.008920502,0,0,0,0,0,5.133054,18.94116,0.3296303,0,20.99948,-5.133187,7230.856,46159.2
638,31.9,-5.316921,-0.3305378,0.008945064,0,0,0,0,0,5.316787,19.61914,0.3305379,0,21.83941,-5.316921,7190.119,44686.8
660,33.0,-5.500253,-0.3312424,0.008964132,0,0,0,0,0,5.50012,20.29564,0.3312424,0,22.6846,-5.500253,7144.803,43289.3
682,34.1,-5.68332,-0.3325451,0.008999383,0,0,0,0,0,5.683186,20.97117,0.3325451,0,23.53574,-5.68332,7112.108,42059.7
704,35.2,-5.867052,-0.334538,0.009053317,0,0,0,0,0,5.866919,21.64915,0.334538,0,24.39733,-5.867052,7093.351,40986.7
726,36.3,-6.050119,-0.3365038,0.009106516,0,0,0,0,0,6.049985,22.32467,0.3365038,0,25.26325,-6.050119,7073.516,39980
748,37.4,-6.233451,-0.338569,0.009162406,0,0,0,0,0,6.233318,23.00117,0.338569,0,26.138,-6.233451,7054.945,39042.3
770,38.5,-6.416918,-0.3396487,0.009191623,0,0,0,0,0,6.416785,23.67817,0.3396487,0,27.02112,-6.416918,7015.214,38046.9
792,39.6,-6.60025,-0.3407288,0.009220853,0,0,0,0,0,6.600117,24.35468,0.3407288,0,27.91145,-6.60025,6975.145,37107.7
814,40.7,-6.783584,-0.3412495,0.009234945,0,0,0,0,0,6.78345,25.03118,0.3412495,0,28.80979,-6.783584,6923.329,36160
836,41.8,-6.966916,-0.3425234,0.009269418,0,0,0,0,0,6.966783,25.70769,0.3425234,0,29.71627,-6.966916,6886.465,35339.9
858,42.9,-7.149849,-0.3425534,0.00927023,0,0,0,0,0,7.149716,26.38272,0.3425534,0,30.62903,-7.149849,6824.492,34438.7
880,44.0,-7.333582,-0.3424996,0.009268774,0,0,0,0,0,7.333449,27.0607,0.3424996,0,31.55426,-7.333582,6760.579,33570.6
902,45.1,-7.516915,-0.3434569,0.009294682,0,0,0,0,0,7.516782,27.7372,0.3434569,0,32.48607,-7.516915,6716.597,32843.4
924,46.2,-7.700248,-0.3437944,0.009303816,0,0,0,0,0,7.700115,28.41371,0.3437944,0,33.42666,-7.700248,6660.257,32092.9
946,47.3,-7.883715,-0.3433447,0.009291645,0,0,0,0,0,7.883581,29.09071,0.3433447,0,34.37687,-7.883715,6588.64,31305
968,48.4,-8.06638,-0.3426719,0.009273437,0,0,0,0,0,8.066247,29.76475,0.3426719,0,35.33199,-8.06638,6513.221,30536.1
990,49.5,-8.250247,-0.3406596,0.009218981,0,0,0,0,0,8.250113,30.44322,0.3406596,0,36.30268,-8.250247,6412.425,29680.3
1012,50.6,-8.433713,-0.3416934,0.009246957,0,0,0,0,0,8.433579,31.12022,0.3416934,0,37.28075,-8.433713,6369.284,29122.7
1034,51.7,-8.616912,-0.3436309,0.009299389,0,0,0,0,0,8.616779,31.79623,0.3436309,0,38.26704,-8.616912,6342.534,28665.2
1056,52.8,-8.800245,-0.3457513,0.009356773,0,0,0,0,0,8.800112,32.47274,0.3457513,0,39.26388,-8.800245,6318.373,28241.2
1078,53.9,-8.983311,-0.3477916,0.009411987,0,0,0,0,0,8.983178,33.14826,0.3477916,0,40.26928,-8.983311,6292.077,27828.9
1100,55.0,-9.166778,-0.3497796,0.009465788,0,0,0,0,0,9.166645,33.82526,0.3497796,0,41.28713,-9.166778,6263.96,27427.8
1122,56.1,-9.350377,-0.3519561,0.009524689,0,0,0,0,0,9.350243,34.50274,0.3519561,0,42.31619,-9.350377,6238.41,27056.6
1144,57.2,-9.533443,-0.3542199,0.009585951,0,0,0,0,0,9.533309,35.17826,0.3542199,0,43.35292,-9.533443,6213.78,26707.7
1166,58.3,-9.716909,-0.3577366,0.009681121,0,0,0,0,0,9.716776,35.85526,0.3577366,0,44.40281,-9.716909,6209.93,26463.6
1188,59.4,-9.900109,-0.3616882,0.009788059,0,0,0,0,0,9.899976,36.53128,0.3616882,0,45.46229,-9.900109,6212.356,26260.8
1210,60.5,-10.08331,-0.363928,0.009848674,0,0,0,0,0,10.08317,37.20729,0.363928,0,46.53311,-10.08331,6184.25,25943.3
1232,61.6,-10.26691,-0.366588,0.009920658,0,0,0,0,0,10.26678,37.88478,0.366588,0,47.61791,-10.26691,6162.238,25665.6
1254,62.7,-10.45011,-0.3687036,0.009977912,0,0,0,0,0,10.44998,38.56079,0.3687036,0,48.7122,-10.45011,6130.35,25361.2
1276,63.8,-10.63357,-0.3713261,0.01004888,0,0,0,0,0,10.63344,39.23779,0.3713261,0,49.82021,-10.63357,6105.922,25100.9
1298,64.9,-10.81691,-0.3741439,0.01012514,0,0,0,0,0,10.81677,39.91429,0.3741439,0,50.93982,-10.81691,6083.76,24862.7
1320,66.0,-10.99997,-0.377256,0.01020936,0,0,0,0,0,10.99984,40.58981,0.377256,0,52.07045,-10.99997,6065.398,24652.3
1342,67.10001,-11.18344,-0.3816462,0.01032816,0,0,0,0,0,11.18331,41.26682,0.3816462,0,53.21653,-11.18344,6066.06,24530
1364,68.20001,-11.36691,-0.3867778,0.01046704,0,0,0,0,0,11.36677,41.94381,0.3867778,0,54.37588,-11.36691,6076.763,24458.6
1386,69.3,-11.55011,-0.3919406,0.01060675,0,0,0,0,0,11.54997,42.61982,0.3919406,0,55.54713,-11.55011,6086.174,24392
1408,70.4,-11.73357,-0.3997023,0.0108168,0,0,0,0,0,11.73344,43.29682,0.3997023,0,56.73399,-11.73357,6133.471,24486
1430,71.5,-11.91677,-0.4071909,0.01101946,0,0,0,0,0,11.91664,43.97283,0.4071909,0,57.93335,-11.91677,6173.891,24561.3
1452,72.60001,-12.1001,-0.4145807,0.01121944,0,0,0,0,0,12.09997,44.64934,0.4145807,0,59.14815,-12.1001,6210.037,24628.2
1474,73.70001,-12.2837,-0.4214179,0.01140447,0,0,0,0,0,12.28357,45.32683,0.4214179,0,60.3797,-12.2837,6235.187,24660.1
1496,74.8,-12.46677,-0.4296807,0.01162808,0,0,0,0,0,12.46664,46.00235,0.4296807,0,61.62296,-12.46677,6278.892,24774.4
1518,75.9,-12.65024,-0.4378567,0.01184934,0,0,0,0,0,12.6501,46.67934,0.4378567,0,62.88464,-12.65024,6318.147,24879.7
1540,77.0,-12.8337,-0.4463108,0.01207813,0,0,0,0,0,12.83357,47.35634,0.4463108,0,64.16244,-12.8337,6358.368,24997.5
1562,78.10001,-13.01663,-0.4541121,0.01228925,0,0,0,0,0,13.0165,48.03137,0.4541121,0,65.45299,-13.01663,6386.555,25077
1584,79.20001,-13.2001,-0.4639183,0.01255462,0,0,0,0,0,13.19997,48.70837,0.4639183,0,66.76426,-13.2001,6439.471,25262.5
1606,80.3,-13.38357,-0.4736164,0.01281708,0,0,0,0,0,13.38343,49.38536,0.4736164,0,68.09294,-13.38357,6487.317,25437
1628,81.4,-13.56703,-0.4847302,0.01311784,0,0,0,0,0,13.5669,50.06236,0.4847302,0,69.43952,-13.56703,6550.74,25681.9
1650,82.50001,-13.75023,-0.4962036,0.01342834,0,0,0,0,0,13.7501,50.73837,0.4962036,0,70.80247,-13.75023,6615.017,25939.5
1672,83.60001,-13.9333,-0.5092087,0.01378028,0,0,0,0,0,13.93316,51.41389,0.5092087,0,72.18326,-13.9333,6695.302,26269.6
1694,84.70001,-14.1169,-0.5224493,0.0141386,0,0,0,0,0,14.11677,52.09138,0.5224493,0,73.58748,-14.1169,6773.607,26602.1
1716,85.8,-14.30037,-0.5362982,0.01451338,0,0,0,0,0,14.30023,52.76838,0.5362982,0,75.01067,-14.30037,6854.904,26956.9
1738,86.9,-14.48356,-0.5517893,0.0149326,0,0,0,0,0,14.48343,53.4444,0.5517893,0,76.45228,-14.48356,6951.964,27384.8
1760,88.00001,-14.6669,-0.5673462,0.01535361,0,0,0,0,0,14.66676,54.1209,0.5673462,0,77.91605,-14.6669,7044.096,27804.9
1782,89.10001,-14.8501,-0.5828189,0.01577233,0,0,0,0,0,14.84996,54.79691,0.5828189,0,79.40048,-14.8501,7129.58,28210.8
1804,90.20001,-15.03343,-0.5999457,0.01623582,0,0,0,0,0,15.0333,55.47342,0.5999457,0,80.90838,-15.03343,7229.255,28685.7
1806,90.258,-15.04343,-0.6008191,0.01625946,0,0,0,0,0,15.0433,55.51032,0.6008191,0,80.99129,-15.04343,7233.78,28708.3

File: xg7.csv
,Time sec,Extension mm,Load kgf,Compressive stress MPa,Cycle Count ,Total Cycle Count ,Repetitions Count ,Marked Data ,PIP Count ,Compressive extension mm,Compressive strain %,Compressive load kgf,Displacement (Strain 1) mm,True strain %,Corrected Position mm,True stress Pa,Elastic Modulus
0,0.0,-0.000133333,-0.0061036,0.00016798,0,0,0,0,0,0.0,0.0,0.006103599,0,0.0,-0.000133333,167.98,inf
22,1.1,-0.1833329,-0.0128138,0.0003526547,0,0,0,0,0,0.1831996,0.681546,0.0128138,0,0.6838791,-0.1833329,350.2512,50276
44,2.2,-0.3670658,-0.01878048,0.0005168665,0,0,0,0,0,0.3669325,1.365076,0.01878048,0,1.374479,-0.3670658,509.8108,36789.8
66,3.3,-0.5502653,-0.02572084,0.0007078754,0,0,0,0,0,0.550132,2.046622,0.02572084,0,2.067856,-0.5502653,693.3878,33606.7
88,4.4,-0.7335982,-0.03358994,0.0009244444,0,0,0,0,0,0.7334648,2.728664,0.03358994,0,2.766583,-0.7335982,899.2194,32918.3
110,5.5,-0.9170644,-0.04185699,0.001151966,0,0,0,0,0,0.9169311,3.411202,0.04185699,0,3.470741,-0.9170644,1112.67,32812.4
132,6.6,-1.100264,-0.04976676,0.001369654,0,0,0,0,0,1.100131,4.092748,0.04976676,0,4.178859,-1.100264,1313.598,32516.4
154,7.7,-1.28373,-0.05821624,0.001602196,0,0,0,0,0,1.283597,4.775286,0.05821624,0,4.893068,-1.28373,1525.687,32600.4
176,8.8,-1.467063,-0.06556993,0.001804581,0,0,0,0,0,1.46693,5.457328,0.06556994,0,5.611889,-1.467063,1706.099,32129.4
198,9.900001,-1.649996,-0.07427847,0.002044252,0,0,0,0,0,1.649863,6.137882,0.07427847,0,6.334331,-1.649996,1918.779,32361
220,11.0,-1.833596,-0.08181895,0.002251778,0,0,0,0,0,1.833462,6.820916,0.08181895,0,7.064691,-1.833596,2098.186,32076.7
242,12.1,-2.016929,-0.08935823,0.00245927,0,0,0,0,0,2.016795,7.502958,0.08935823,0,7.799352,-2.016929,2274.752,31847.8
264,13.2,-2.200261,-0.09650991,0.002656094,0,0,0,0,0,2.200128,8.184999,0.09650991,0,8.53945,-2.200261,2438.693,31530.5
286,14.3,-2.383594,-0.1036581,0.002852824,0,0,0,0,0,2.383461,8.867042,0.1036581,0,9.285066,-2.383594,2599.863,31261
308,15.4,-2.566794,-0.1108529,0.003050836,0,0,0,0,0,2.56666,9.548588,0.1108529,0,10.03574,-2.566794,2759.524,31044.6
330,16.5,-2.750127,-0.1177599,0.003240924,0,0,0,0,0,2.749993,10.23063,0.1177599,0,10.79264,-2.750127,2909.357,30780.3
352,17.6,-2.933726,-0.1244913,0.003426185,0,0,0,0,0,2.933593,10.91366,0.1244913,0,11.55642,-2.933726,3052.262,30503.3
374,18.7,-3.116792,-0.1307228,0.003597683,0,0,0,0,0,3.116659,11.59471,0.1307228,0,12.32384,-3.116792,3180.542,30148.8
396,19.8,-3.300259,-0.1369725,0.003769685,0,0,0,0,0,3.300125,12.27725,0.1369725,0,13.09889,-3.300259,3306.871,29833.9
418,20.9,-3.483592,-0.1428603,0.003931726,0,0,0,0,0,3.483459,12.95929,0.1428603,0,13.87943,-3.483592,3422.202,29478.7
440,22.0,-3.666791,-0.1484079,0.004084402,0,0,0,0,0,3.666658,13.64084,0.1484079,0,14.66553,-3.666791,3527.255,29093.4
462,23.1,-3.850391,-0.1538718,0.004234778,0,0,0,0,0,3.850257,14.32387,0.1538718,0,15.4596,-3.850391,3628.194,28726.1
484,24.2,-4.033723,-0.1584267,0.004360136,0,0,0,0,0,4.03359,15.00592,0.1584267,0,16.25885,-4.033723,3705.857,28232.1
506,25.3,-4.217057,-0.163313,0.004494614,0,0,0,0,0,4.216923,15.68796,0.163313,0,17.06455,-4.217057,3789.501,27837.6
528,26.4,-4.400256,-0.167465,0.004608884,0,0,0,0,0,4.400123,16.3695,0.167465,0,17.8762,-4.400256,3854.433,27356.9
550,27.5,-4.583322,-0.1716377,0.004723723,0,0,0,0,0,4.583189,17.05055,0.1716377,0,18.69388,-4.583322,3918.302,26918.6
572,28.6,-4.767055,-0.1754559,0.004828804,0,0,0,0,0,4.766922,17.73409,0.1754559,0,19.52133,-4.767055,3972.46,26456.8
594,29.7,-4.950255,-0.1781274,0.004902328,0,0,0,0,0,4.950121,18.41563,0.1781274,0,20.35325,-4.950255,3999.534,25865.6
616,30.8,-5.133721,-0.1824476,0.005021226,0,0,0,0,0,5.133588,19.09817,0.1824476,0,21.19337,-5.133721,4062.263,25546.1
638,31.9,-5.316921,-0.1853575,0.005101309,0,0,0,0,0,5.316787,19.77971,0.1853575,0,22.03938,-5.316921,4092.285,25059.3
660,33.0,-5.499986,-0.1889844,0.005201128,0,0,0,0,0,5.499853,20.46076,0.1889844,0,22.89197,-5.499986,4136.938,24699.2
682,34.1,-5.683586,-0.1917664,0.005277693,0,0,0,0,0,5.683453,21.1438,0.1917664,0,23.75442,-5.683586,4161.788,24253.1
704,35.2,-5.867052,-0.1946297,0.005356495,0,0,0,0,0,5.866919,21.82634,0.1946297,0,24.62374,-5.867052,4187.369,23845.5
726,36.3,-6.050119,-0.1968411,0.005417357,0,0,0,0,0,6.049985,22.50739,0.1968411,0,25.49875,-6.050119,4198.051,23386.7
748,37.4,-6.233718,-0.1989303,0.005474853,0,0,0,0,0,6.233585,23.19042,0.1989303,0,26.38408,-6.233718,4205.212,22938.8
770,38.5,-6.416918,-0.2004338,0.005516232,0,0,0,0,0,6.416784,23.87197,0.2004338,0,27.27536,-6.416918,4199.399,22452.3
792,39.6,-6.60025,-0.2024151,0.00557076,0,0,0,0,0,6.600117,24.55401,0.2024151,0,28.17531,-6.60025,4202.915,22044.4
814,40.7,-6.783717,-0.2040254,0.005615079,0,0,0,0,0,6.783584,25.23655,0.2040254,0,29.0841,-6.783717,4198.027,21618.8
836,41.8,-6.966916,-0.2055759,0.005657752,0,0,0,0,0,6.966783,25.91809,0.2055759,0,29.99988,-6.966916,4191.371,21210.3
858,42.9,-7.150383,-0.207023,0.005697577,0,0,0,0,0,7.150249,26.60063,0.207023,0,30.92548,-7.150383,4181.986,20811.6
880,44.0,-7.333849,-0.2079776,0.005723848,0,0,0,0,0,7.333715,27.28317,0.2079775,0,31.85973,-7.333849,4162.201,20384.5
902,45.1,-7.516648,-0.2096996,0.005771242,0,0,0,0,0,7.516514,27.96322,0.2096996,0,32.79934,-7.516648,4157.417,20053.4
924,46.2,-7.700115,-0.2112218,0.005813133,0,0,0,0,0,7.699981,28.64576,0.2112218,0,33.75135,-7.700115,4147.917,19717.7
946,47.3,-7.883715,-0.2134831,0.005875369,0,0,0,0,0,7.883581,29.3288,0.2134831,0,34.7132,-7.883715,4152.194,19464.7
968,48.4,-8.066914,-0.2174332,0.00598408,0,0,0,0,0,8.066781,30.01035,0.2174332,0,35.68227,-8.066914,4188.237,19374.6
990,49.5,-8.25038,-0.2216915,0.006101274,0,0,0,0,0,8.250247,30.69288,0.2216915,0,36.66226,-8.25038,4228.617,19314.8
1012,50.6,-8.43318,-0.2258621,0.006216057,0,0,0,0,0,8.433046,31.37294,0.2258621,0,37.64833,-8.43318,4265.897,19251.6
1034,51.7,-8.617045,-0.2299889,0.006329631,0,0,0,0,0,8.616912,32.05696,0.2299889,0,38.65006,-8.617045,4300.543,19185
1056,52.8,-8.800379,-0.2340481,0.006441347,0,0,0,0,0,8.800246,32.73901,0.2340481,0,39.65898,-8.800379,4332.514,19116.9
1078,53.9,-8.983579,-0.238558,0.006565466,0,0,0,0,0,8.983445,33.42056,0.238558,0,40.67743,-8.983579,4371.251,19087.9
1100,55.0,-9.167044,-0.2425208,0.00667453,0,0,0,0,0,9.166911,34.10309,0.2425208,0,41.70787,-9.167044,4398.309,19016.6
1122,56.1,-9.350111,-0.2466833,0.006789086,0,0,0,0,0,9.349977,34.78414,0.2466833,0,42.74675,-9.350111,4427.561,18964.3
1144,57.2,-9.533443,-0.2511834,0.006912937,0,0,0,0,0,9.53331,35.46618,0.2511835,0,43.79808,-9.533443,4461.182,18938.9
1166,58.3,-9.717043,-0.2552326,0.007024377,0,0,0,0,0,9.71691,36.14922,0.2552327,0,44.86214,-9.717043,4485.12,18880.6
1188,59.4,-9.900243,-0.2602299,0.007161908,0,0,0,0,0,9.90011,36.83076,0.2602299,0,45.93528,-9.900243,4524.123,18894
1210,60.5,-10.08371,-0.2650196,0.007293728,0,0,0,0,0,10.08358,37.5133,0.2650196,0,47.02165,-10.08371,4557.61,18891.7
1232,61.6,-10.26691,-0.2696747,0.007421844,0,0,0,0,0,10.26678,38.19485,0.2696747,0,48.11835,-10.26691,4587.082,18880.5
1254,62.7,-10.45011,-0.2743223,0.007549753,0,0,0,0,0,10.44997,38.87639,0.2743223,0,49.2272,-10.45011,4614.681,18869.2
1276,63.8,-10.63371,-0.2796879,0.007697422,0,0,0,0,0,10.63357,39.55943,0.2796879,0,50.35096,-10.63371,4652.366,18906.1
1298,64.9,-10.81704,-0.2852274,0.007849878,0,0,0,0,0,10.81691,40.24147,0.2852274,0,51.48583,-10.81704,4690.971,18953.8
1320,66.0,-11.00024,-0.2917607,0.008029683,0,0,0,0,0,11.00011,40.92302,0.2917607,0,52.63288,-11.00024,4743.695,19065
1342,67.10001,-11.18371,-0.2977815,0.008195385,0,0,0,0,0,11.18357,41.60555,0.2977815,0,53.79494,-11.18371,4785.65,19139.2
1364,68.20001,-11.36677,-0.3038917,0.008363547,0,0,0,0,0,11.36664,42.2866,0.3038917,0,54.96808,-11.36677,4826.887,19217.4
1386,69.3,-11.55024,-0.3103723,0.008541902,0,0,0,0,0,11.5501,42.96914,0.3103723,0,56.15776,-11.55024,4871.52,19315.4
1408,70.4,-11.73371,-0.3170697,0.008726223,0,0,0,0,0,11.73357,43.65168,0.3170697,0,57.36178,-11.73371,4917.08,19423.7
1430,71.5,-11.9169,-0.3239897,0.008916673,0,0,0,0,0,11.91677,44.33323,0.3239897,0,58.57867,-11.9169,4963.624,19542.5
1452,72.60001,-12.1005,-0.3314551,0.009122131,0,0,0,0,0,12.10037,45.01626,0.3314551,0,59.81327,-12.1005,5015.689,19689.4
1474,73.70001,-12.28357,-0.3390504,0.009331166,0,0,0,0,0,12.28344,45.69731,0.3390504,0,61.05964,-12.28357,5067.074,19840.5
1496,74.8,-12.4669,-0.3468592,0.009546074,0,0,0,0,0,12.46677,46.37935,0.3468592,0,62.3236,-12.4669,5118.667,19998.9
1518,75.9,-12.65037,-0.3549864,0.009769748,0,0,0,0,0,12.65023,47.06189,0.3549864,0,63.60466,-12.65037,5171.92,20170.7
1540,77.0,-12.83357,-0.3632571,0.00999737,0,0,0,0,0,12.83344,47.74343,0.3632571,0,64.90046,-12.83357,5224.282,20346
1562,78.10001,-13.01704,-0.3717608,0.0102314,0,0,0,0,0,13.0169,48.42597,0.3717608,0,66.2152,-13.01704,5276.747,20528.8
1584,79.20001,-13.20037,-0.3805035,0.01047202,0,0,0,0,0,13.20023,49.10802,0.3805035,0,67.54648,-13.20037,5329.416,20719.7
1606,80.3,-13.38343,-0.3891213,0.01070919,0,0,0,0,0,13.3833,49.78907,0.3891213,0,68.89374,-13.38343,5377.184,20899.2
1628,81.4,-13.5669,-0.3980999,0.01095629,0,0,0,0,0,13.56677,50.4716,0.3980999,0,70.2624,-13.5669,5426.477,21092.2
1650,82.50001,-13.75037,-0.4081421,0.01123267,0,0,0,0,0,13.75023,51.15414,0.4081421,0,71.65006,-13.75037,5486.693,21335.8
1672,83.60001,-13.93383,-0.4189663,0.01153057,0,0,0,0,0,13.9337,51.83668,0.4189663,0,73.05724,-13.93383,5553.504,21613.2
1694,84.70001,-14.1169,-0.4284866,0.01179258,0,0,0,0,0,14.11677,52.51773,0.4284866,0,74.48138,-14.1169,5599.385,21817.7
1716,85.8,-14.3001,-0.440193,0.01211476,0,0,0,0,0,14.29997,53.19928,0.440193,0,75.92715,-14.3001,5669.794,22126.6
1738,86.9,-14.48356,-0.4514764,0.01242529,0,0,0,0,0,14.48343,53.88181,0.4514764,0,77.39628,-14.48356,5730.319,22406.3
1760,88.00001,-14.66703,-0.4629505,0.01274108,0,0,0,0,0,14.6669,54.56435,0.4629505,0,78.88731,-14.66703,5788.991,22688.4
1782,89.10001,-14.85036,-0.4745183,0.01305944,0,0,0,0,0,14.85023,55.2464,0.4745183,0,80.39982,-14.85036,5844.57,22968.2
1803,90.134,-15.02276,-0.4858391,0.013371,0,0,0,0,0,15.02263,55.88776,0.4858391,0,81.84329,-15.02276,5898.25,23246.3