Folder: MatSci/GFBaking/em (part 8)

File: xg8.csv
,Time sec,Extension mm,Load kgf,Compressive stress MPa,Cycle Count ,Total Cycle Count ,Repetitions Count ,Marked Data ,PIP Count ,Compressive extension mm,Compressive strain %,Compressive load kgf,Displacement (Strain 1) mm,True strain %,Corrected Position mm,True stress Pa,Elastic Modulus
0,0.0,0.0,-0.006573745,0.0001754408,0,0,0,0,0,0.0,0.0,0.006573745,0,0.0,0.0,175.4408,inf
22,1.1,-0.1831995,-0.0149448,0.0003988485,0,0,0,0,0,0.1831995,0.7081544,0.0149448,0,0.7106737,-0.1831995,396.024,58637.2
44,2.2,-0.3665324,-0.02123792,0.0005667998,0,0,0,0,0,0.3665324,1.416824,0.02123792,0,1.426957,-0.3665324,558.7693,41649.2
66,3.3,-0.5499987,-0.02752383,0.0007345589,0,0,0,0,0,0.5499986,2.126009,0.02752383,0,2.148935,-0.5499987,718.9421,35971.2
88,4.4,-0.7333315,-0.03373957,0.0009004454,0,0,0,0,0,0.7333316,2.834679,0.03373957,0,2.875632,-0.7333315,874.9206,33070.9
110,5.5,-0.9163978,-0.0396511,0.001058213,0,0,0,0,0,0.9163978,3.542318,0.0396511,0,3.606581,-0.9163978,1020.727,31101.3
132,6.6,-1.099997,-0.04505533,0.001202441,0,0,0,0,0,1.099997,4.252019,0.04505533,0,4.345064,-1.099997,1151.313,29441.6
154,7.7,-1.283197,-0.04968316,0.001325949,0,0,0,0,0,1.283197,4.960173,0.04968316,0,5.087415,-1.283197,1260.18,27830.6
176,8.8,-1.466663,-0.05466475,0.001458899,0,0,0,0,0,1.466663,5.669359,0.05466475,0,5.836411,-1.466663,1376.188,26790.7
198,9.900001,-1.649863,-0.05943306,0.001586156,0,0,0,0,0,1.649863,6.377513,0.05943306,0,6.589959,-1.649863,1484.999,25893.3
220,11.0,-1.833062,-0.06418329,0.00171293,0,0,0,0,0,1.833062,7.085668,0.06418329,0,7.349227,-1.833062,1591.558,25168.2
242,12.1,-2.016662,-0.06840724,0.00182566,0,0,0,0,0,2.016662,7.795368,0.06840724,0,8.115982,-2.016662,1683.343,24382.4
264,13.2,-2.199861,-0.07256441,0.001936607,0,0,0,0,0,2.199862,8.503523,0.07256441,0,8.886972,-2.199861,1771.927,23710.2
286,14.3,-2.383461,-0.07755537,0.002069806,0,0,0,0,0,2.383461,9.213223,0.07755537,0,9.665655,-2.383461,1879.11,23389
308,15.4,-2.566661,-0.08166188,0.002179401,0,0,0,0,0,2.56666,9.921378,0.08166188,0,10.44873,-2.566661,1963.174,22869.6
330,16.5,-2.749593,-0.0847938,0.002262986,0,0,0,0,0,2.749593,10.6285,0.0847938,0,11.23684,-2.749593,2022.465,22166.8
352,17.6,-2.933193,-0.08959273,0.00239106,0,0,0,0,0,2.933193,11.3382,0.08959273,0,12.03411,-2.933193,2119.957,21955.3
374,18.7,-3.116526,-0.09367012,0.002499878,0,0,0,0,0,3.116526,12.04687,0.09367012,0,12.83661,-3.116526,2198.721,21604.2
396,19.8,-3.299992,-0.09851176,0.002629092,0,0,0,0,0,3.299992,12.75606,0.09851176,0,13.6462,-3.299992,2293.724,21457.7
418,20.9,-3.483325,-0.1036109,0.002765178,0,0,0,0,0,3.483325,13.46473,0.1036109,0,14.46181,-3.483325,2392.854,21380.5
440,22.0,-3.666391,-0.1080898,0.002884713,0,0,0,0,0,3.666391,14.17237,0.1080898,0,15.28292,-3.666391,2475.881,21191.1
462,23.1,-3.849857,-0.1132568,0.00302261,0,0,0,0,0,3.849857,14.88155,0.1132568,0,16.11264,-3.849857,2572.798,21145.9
484,24.2,-4.033323,-0.1184055,0.00316002,0,0,0,0,0,4.033323,15.59074,0.1184055,0,16.9493,-4.033323,2667.349,21101.6
506,25.3,-4.21639,-0.1236947,0.003301177,0,0,0,0,0,4.21639,16.29838,0.1236947,0,17.79118,-4.21639,2763.139,21087.1
528,26.4,-4.399989,-0.1284131,0.003427103,0,0,0,0,0,4.399989,17.00808,0.1284131,0,18.64269,-4.399989,2844.219,20978
550,27.5,-4.583189,-0.1338019,0.003570919,0,0,0,0,0,4.583189,17.71623,0.1338019,0,19.49963,-4.583189,2938.287,20984.7
572,28.6,-4.766388,-0.139078,0.003711728,0,0,0,0,0,4.766388,18.42439,0.139078,0,20.36398,-4.766388,3027.865,20973.8
594,29.7,-4.950122,-0.1445434,0.00385759,0,0,0,0,0,4.950121,19.1346,0.1445434,0,21.23842,-4.950122,3119.455,20988.9
616,30.8,-5.133321,-0.1500415,0.004004325,0,0,0,0,0,5.133321,19.84276,0.1500415,0,22.11799,-5.133321,3209.756,21009.7
638,31.9,-5.316654,-0.1551529,0.004140738,0,0,0,0,0,5.316654,20.55143,0.1551529,0,23.00602,-5.316654,3289.758,20976.3
660,33.0,-5.50012,-0.160363,0.004279786,0,0,0,0,0,5.50012,21.26061,0.160363,0,23.90267,-5.50012,3369.877,20957.5
682,34.1,-5.683053,-0.1654762,0.004416247,0,0,0,0,0,5.683053,21.96773,0.1654762,0,24.80478,-5.683053,3446.097,20929.6
704,35.2,-5.866252,-0.1703727,0.004546924,0,0,0,0,0,5.866252,22.67589,0.1703727,0,25.71644,-5.866252,3515.868,20876
726,36.3,-6.049985,-0.1756201,0.004686967,0,0,0,0,0,6.049985,23.3861,0.1756201,0,26.63917,-6.049985,3590.868,20865.4
748,37.4,-6.233318,-0.1811344,0.004834136,0,0,0,0,0,6.233318,24.09477,0.1811344,0,27.56847,-6.233318,3669.361,20887.6
770,38.5,-6.416784,-0.1865733,0.004979287,0,0,0,0,0,6.416784,24.80396,0.1865733,0,28.50716,-6.416784,3744.227,20899.7
792,39.6,-6.599584,-0.1917191,0.005116621,0,0,0,0,0,6.599584,25.51057,0.1917191,0,29.45129,-6.599584,3811.342,20881.2
814,40.7,-6.78305,-0.1965217,0.005244791,0,0,0,0,0,6.78305,26.21975,0.1965217,0,30.40791,-6.78305,3869.62,20825.4
836,41.8,-6.96665,-0.2010856,0.005366593,0,0,0,0,0,6.96665,26.92945,0.2010856,0,31.37448,-6.96665,3921.399,20747.4
858,42.9,-7.149849,-0.2060488,0.005499053,0,0,0,0,0,7.149849,27.63761,0.2060488,0,32.34835,-7.149849,3979.247,20714.8
880,44.0,-7.333449,-0.2107923,0.005625648,0,0,0,0,0,7.333449,28.34731,0.2107923,0,33.33395,-7.333449,4030.928,20661.1
902,45.1,-7.516382,-0.2153802,0.005748089,0,0,0,0,0,7.516382,29.05443,0.2153802,0,34.32573,-7.516382,4078.014,20597
924,46.2,-7.699715,-0.2194726,0.005857307,0,0,0,0,0,7.699715,29.7631,0.2194726,0,35.32964,-7.699715,4113.991,20488.6
946,47.3,-7.883181,-0.2239818,0.00597765,0,0,0,0,0,7.883181,30.47229,0.2239818,0,36.34448,-7.883181,4156.123,20423
968,48.4,-8.066647,-0.2287435,0.006104731,0,0,0,0,0,8.066647,31.18147,0.2287435,0,37.36972,-8.066647,4201.186,20382.8
990,49.5,-8.250114,-0.2327984,0.006212949,0,0,0,0,0,8.250113,31.89066,0.2327984,0,38.40558,-8.250114,4231.598,20282.8
1012,50.6,-8.43318,-0.236829,0.006320517,0,0,0,0,0,8.43318,32.5983,0.236829,0,39.44999,-8.43318,4260.136,20186
1034,51.7,-8.616379,-0.2412146,0.00643756,0,0,0,0,0,8.61638,33.30645,0.2412146,0,40.5062,-8.616379,4293.437,20122.7
1056,52.8,-8.799845,-0.2457597,0.00655886,0,0,0,0,0,8.799846,34.01564,0.2457597,0,41.57524,-8.799845,4327.822,20074.4
1078,53.9,-8.983311,-0.2502435,0.006678526,0,0,0,0,0,8.983313,34.72482,0.2502435,0,42.65584,-8.983311,4359.419,20023.2
1100,55.0,-9.166511,-0.2544651,0.006791192,0,0,0,0,0,9.166511,35.43298,0.2544651,0,43.74664,-9.166511,4384.871,19954.1
1122,56.1,-9.349978,-0.2587347,0.006905139,0,0,0,0,0,9.349977,36.14216,0.2587347,0,44.85109,-9.349978,4409.472,19890.8
1144,57.2,-9.533044,-0.2628224,0.007014233,0,0,0,0,0,9.533044,36.8498,0.2628224,0,45.96542,-9.533044,4429.502,19817
1166,58.3,-9.71651,-0.2664693,0.007111561,0,0,0,0,0,9.71651,37.55899,0.2664693,0,47.09479,-9.71651,4440.531,19712.6
1188,59.4,-9.899976,-0.2700955,0.007208338,0,0,0,0,0,9.899976,38.26817,0.2700955,0,48.23705,-9.899976,4449.839,19610.6
1210,60.5,-10.08304,-0.2741944,0.007317729,0,0,0,0,0,10.08304,38.97581,0.2741944,0,49.38998,-10.08304,4465.585,19546.7
1232,61.6,-10.26664,-0.2784726,0.007431906,0,0,0,0,0,10.26664,39.68551,0.2784726,0,50.55979,-10.26664,4482.516,19496.7
1254,62.7,-10.44997,-0.2830822,0.007554927,0,0,0,0,0,10.44998,40.39418,0.2830822,0,51.7417,-10.44997,4503.176,19471.7
1276,63.8,-10.63317,-0.2875081,0.007673047,0,0,0,0,0,10.63317,41.10234,0.2875081,0,52.93688,-10.63317,4519.246,19435.5
1298,64.9,-10.81664,-0.2922112,0.007798562,0,0,0,0,0,10.81664,41.81152,0.2922111,0,54.14828,-10.81664,4537.865,19418.3
1320,66.0,-10.99984,-0.2969289,0.007924469,0,0,0,0,0,10.99984,42.51968,0.2969289,0,55.37275,-10.99984,4555.01,19403.2
1342,67.10001,-11.18331,-0.302274,0.00806712,0,0,0,0,0,11.18331,43.22886,0.302274,0,56.61421,-11.18331,4579.796,19428.4
1364,68.20001,-11.36664,-0.3077107,0.008212216,0,0,0,0,0,11.36664,43.93753,0.3077107,0,57.87036,-11.36664,4603.971,19458.9
1386,69.3,-11.54984,-0.312684,0.008344943,0,0,0,0,0,11.54984,44.64569,0.312684,0,59.14156,-11.54984,4619.286,19459.7
1408,70.4,-11.73304,-0.3181357,0.008490439,0,0,0,0,0,11.73304,45.35384,0.3181356,0,60.42912,-11.73304,4639.699,19489.9
1430,71.5,-11.9165,-0.323958,0.008645826,0,0,0,0,0,11.9165,46.06302,0.323958,0,61.73539,-11.9165,4663.297,19541
1452,72.60001,-12.09997,-0.3294979,0.008793675,0,0,0,0,0,12.09997,46.77221,0.3294979,0,63.05895,-12.09997,4680.679,19573.8
1474,73.70001,-12.28317,-0.3348617,0.008936825,0,0,0,0,0,12.28317,47.48036,0.3348617,0,64.3983,-12.28317,4693.588,19595.8
1496,74.8,-12.4665,-0.3429307,0.009152171,0,0,0,0,0,12.4665,48.18903,0.3429307,0,65.75684,-12.4665,4741.828,19772.8
1518,75.9,-12.6497,-0.351089,0.0093699,0,0,0,0,0,12.6497,48.89719,0.351089,0,67.13307,-12.6497,4788.283,19950.1
1540,77.0,-12.83317,-0.3586463,0.00957159,0,0,0,0,0,12.83317,49.60637,0.3586463,0,68.53055,-12.83317,4823.471,20088.1
1562,78.10001,-13.01663,-0.3661226,0.009771118,0,0,0,0,0,13.01663,50.31556,0.3661226,0,69.94783,-13.01663,4854.726,20217.9
1584,79.20001,-13.19997,-0.3755391,0.01002243,0,0,0,0,0,13.19997,51.02423,0.3755391,0,71.38444,-13.19997,4908.561,20449.8
1606,80.3,-13.38303,-0.384732,0.01026777,0,0,0,0,0,13.38303,51.73186,0.384732,0,72.83986,-13.38303,4956.06,20663.8
1628,81.4,-13.56637,-0.3940851,0.01051738,0,0,0,0,0,13.56637,52.44054,0.3940851,0,74.31894,-13.56637,5002.011,20880.2
1650,82.50001,-13.74997,-0.4050233,0.01080931,0,0,0,0,0,13.74997,53.15024,0.4050233,0,75.82242,-13.74997,5064.134,21173.2
1672,83.60001,-13.9333,-0.4149156,0.01107331,0,0,0,0,0,13.9333,53.85891,0.4149156,0,77.34662,-13.9333,5109.347,21404.9
1694,84.70001,-14.11677,-0.4262898,0.01137687,0,0,0,0,0,14.11677,54.56809,0.4262898,0,78.89556,-14.11677,5168.728,21705.9
1716,85.8,-14.29983,-0.4377333,0.01168227,0,0,0,0,0,14.29983,55.27573,0.4377333,0,80.46539,-14.29983,5224.811,22003.2
1738,86.9,-14.4829,-0.4501872,0.01201464,0,0,0,0,0,14.4829,55.98337,0.4501871,0,82.06027,-14.4829,5288.441,22343.2
1760,88.00001,-14.66663,-0.4632578,0.01236347,0,0,0,0,0,14.66663,56.69359,0.4632578,0,83.68694,-14.66663,5354.176,22703.9
1782,89.10001,-14.84996,-0.4756569,0.01269438,0,0,0,0,0,14.84996,57.40226,0.4756569,0,85.33689,-14.84996,5407.521,23023.7
1801,90.03001,-15.0049,-0.4870673,0.0129989,0,0,0,0,0,15.0049,58.00115,0.4870673,0,86.75279,-15.0049,5459.39,23332.6