Folder: MatSci/FirefighterJacket/data/DMA/feb26_dma

Note: README.md
# matsci
Some useful jupyter notebooks (code and visualizations) from MatSci projects at Olin College. We analyzed firefighter jackets and various gluten-free breads.

File: feb26_strain30.csv
Time	Sample     	Program Temperature	Frequency     	Raw Dynamic	Raw Static	In-Phase     	Out-Of-Phase	Zero Displacement	Min Displacement	Max Displacement	Spring     	C*     	Measured     	Corrected     	Corrected     	Stiffness*	Total     	Stiffness     	Inertia     	Sample     	Ratio of     	Total     	Sample     	Total Applied	Static Force	Static     	Static Displacement	Static Displacement Corrected	Static Stress	Static     	Static Strain	Static     	Dynamic Force	Displacement	Dynamic     	Dynamic     	Storage Modulus	Loss Modulus	Tan Delta	Loss Viscosity	Storage     	Complex     	Shear Storage	Shear Loss	Complex     	Shear Complex
          	Temperature		          	Force     	Force     	Angle     	Angle     	               	               	               	Stiffness     	          	Tan Delta     	Total Tan Delta	Total Delta	          	Stiffness'	Less Spring	          	Stiffness'	Sample to Total	Stiffness''	Stiffness''	Static Force	          	Force Corrected	Displacement	Displacement Co	          	Stress Correcte	          	Strain Correcte	          	Amplitude     	Stress     	Strain     		          	          	               	Viscosity     	Viscosity     	Modulus     	Modulus     	Modulus     	Modulus
0	93.9875	94	1.000001	166	2171	570987	127047.25	40893208	38932.875	40740.5	0.000045	584951	0.222505	0.209178	0.206204	14875.2	14593.2	12243.4	1.863819	12245.3	0.839002	3060.15	3058.76	0.646509	0.979066	0	0.141527	0	265531	0	0.024276	0	0.363073	0.028419	98468.5	0.004875	1.93616e+07	4.83635e+06	0.249791	769728	3.08148e+06	3.17617e+06	7.17095e+06	1.79124e+06	1.99565e+07	7.39128e+06
8.253142	110.425	110.506	1.000001	171	2174	600903.875	104777.625	40906465.875	38900.5	40772.375	0.000045	609970	0.174367	0.161274	0.159898	14694.7	14540.7	12191.2	1.863819	12193	0.838436	2350.76	2349.37	0.66215	0.993693	0.014626	0.141108	0.000419	269498	3966.8	0.024204	0.000072	0.373757	0.02989	101366	0.005127	1.9279e+07	3.71469e+06	0.192681	591211	3.06834e+06	3.12478e+06	7.14037e+06	1.37581e+06	1.96336e+07	7.2717e+06
16.446	126.7	126.892	1.000001	171	2174	593856.375	101374.125	40890589.125	38896.625	40739.125	0.000045	602447	0.170705	0.157628	0.156342	14878.2	14731.2	12381.4	1.863819	12383.2	0.840507	2327.76	2326.37	0.66215	0.994908	0.015842	0.14161	0.000083	269828	4296.45	0.02429	0.000014	0.37468	0.029537	101616	0.005066	1.95797e+07	3.67833e+06	0.187865	585424	3.1162e+06	3.17071e+06	7.25173e+06	1.36235e+06	1.99222e+07	7.37859e+06
24.9701	143.825	143.94	1.000001	198	2195	582382.75	108545.25	41378485.5	39367.375	41205.75	0.000045	592412	0.186381	0.173236	0.171533	17519.2	17309.4	14967	1.863819	14968.8	0.864689	3007.33	3005.94	0.77164	1.067198	0.088132	0.126178	0.01535	289433	23902.1	0.021643	0.002633	0.446322	0.02896	121046	0.004967	2.36679e+07	4.75283e+06	0.200813	756435	3.76686e+06	3.84206e+06	8.76589e+06	1.76031e+06	2.41404e+07	8.94089e+06
33.4253	139.9625	139.256	1.000001	226	2216	590506.875	103236.125	42297988.375	40243.375	42102.375	0.000044	599463	0.174826	0.161732	0.160344	19761.5	19568.6	17238.5	1.863819	17240.4	0.880938	3175.24	3173.86	0.881129	1.107366	0.1283	0.097093	0.044434	300327	34795.9	0.016654	0.007622	0.519011	0.029348	140760	0.005034	2.72595e+07	5.01833e+06	0.184094	798691	4.33849e+06	4.41139e+06	1.00961e+07	1.85864e+06	2.77176e+07	1.02658e+07
41.6658	123.1375	122.775	1.000001	226	2216	604956.625	99051.375	42531543.875	40441.625	42346.25	0.000044	613012	0.163733	0.150685	0.149559	19324.7	19167.3	16840	1.863819	16841.9	0.878591	2897.46	2896.08	0.881129	1.089904	0.110837	0.089706	0.051822	295591	30060	0.015387	0.008889	0.517628	0.030064	140385	0.005157	2.66295e+07	4.57913e+06	0.171957	728790	4.23821e+06	4.30041e+06	9.86277e+06	1.69597e+06	2.70203e+07	1.00075e+07
49.9575	106.65	106.192	1.000001	216	2209	602552.875	99631.875	42598220.375	40509.875	42415	0.000044	610734	0.16535	0.152295	0.151133	18538.5	18380.8	16054.3	1.863819	16056.2	0.873438	2807.89	2806.52	0.844633	1.048432	0.069366	0.087597	0.053931	284344	18812.5	0.015025	0.009251	0.491823	0.029949	133387	0.005137	2.53871e+07	4.43751e+06	0.174794	706251	4.04048e+06	4.10174e+06	9.40263e+06	1.64352e+06	2.5772e+07	9.54519e+06
58.1537	90.25	89.79952	1.000001	216	2209	597257.5	102964.25	42710091	40617.375	42509.875	0.000044	606068	0.172395	0.159311	0.157983	18681.2	18502.9	16177.6	1.863819	16179.4	0.87434	2956.83	2955.46	0.844633	1.040094	0.061027	0.084058	0.057469	282082	16551.1	0.014418	0.009857	0.492331	0.029688	133524	0.005092	2.5582e+07	4.67301e+06	0.182668	743731	4.0715e+06	4.13887e+06	9.47482e+06	1.73074e+06	2.60053e+07	9.6316e+06
66.3653	76	73.3763	1.000001	216	2209	585057.875	106976.625	42803797.875	40730.25	42587.625	0.000044	594758	0.182848	0.169719	0.168117	19036.5	18824.1	16499.8	1.863819	16501.7	0.876539	3204.89	3203.51	0.844633	1.033118	0.054052	0.081094	0.060433	280190	14659.3	0.01391	0.010366	0.493569	0.029084	133860	0.004989	2.60915e+07	5.06522e+06	0.194133	806153	4.15259e+06	4.23012e+06	9.66352e+06	1.87601e+06	2.65786e+07	9.84394e+06
74.69103	65.1	56.7249	1.000001	232	2221	581162.125	110473.875	42988750.125	40898.5	42763.75	0.000044	591569	0.190091	0.176929	0.175117	20556.8	20307.4	17985	1.863819	17986.9	0.885652	3605.23	3603.86	0.907198	1.081939	0.102873	0.075244	0.066283	293431	27899.9	0.012906	0.011369	0.535641	0.028886	145270	0.004955	2.84399e+07	5.69822e+06	0.20036	906900	4.52635e+06	4.61631e+06	1.05333e+07	2.11045e+06	2.90052e+07	1.07426e+07
83.0485	56.875	40.01	1.000001	253	2236	584964	113477.25	43189280	41073.75	42961.125	0.000044	595869	0.19399	0.180809	0.178877	22255.8	21976.6	19656.3	1.863819	19658.2	0.894429	3988.29	3986.91	0.985405	1.145276	0.16621	0.068901	0.072626	310609	45077.6	0.011818	0.012457	0.589915	0.029069	159990	0.004986	3.10824e+07	6.30389e+06	0.202812	1.00329e+06	4.94692e+06	5.04763e+06	1.1512e+07	2.33477e+06	3.17152e+07	1.17464e+07
91.2694	72.15	55.9162	1.000001	253	2236	585151.25	111979.25	43061334.5	40960.25	42838.625	0.000044	595770	0.191368	0.1782	0.176348	22259.5	21990.4	19668.8	1.863819	19670.7	0.894437	3933.18	3931.81	0.985405	1.15476	0.175693	0.072948	0.068579	313181	47649.5	0.012513	0.011763	0.58992	0.029077	159991	0.004987	3.11022e+07	6.21676e+06	0.199882	989427	4.95006e+06	5.04798e+06	1.15193e+07	2.3025e+06	3.17174e+07	1.17472e+07
99.4901	88.5875	72.3576	1.000001	253	2236	592205.375	110514.875	42953901.375	40860.375	42746.5	0.000044	602429	0.186616	0.173469	0.17176	22013.4	21764.2	19441.5	1.863819	19443.4	0.893289	3789.23	3787.85	0.985405	1.162733	0.183667	0.076347	0.065181	315343	49812	0.013095	0.01118	0.589163	0.029427	159786	0.005047	3.07428e+07	5.98915e+06	0.194815	953202	4.89286e+06	4.98485e+06	1.13862e+07	2.2182e+06	3.13208e+07	1.16003e+07
107.674	104.85	88.7256	1.000001	253	2236	602520.625	109398.125	42861296.875	40753.375	42668.75	0.000044	612372	0.181567	0.168444	0.166877	21656	21427.7	19104	1.863819	19105.9	0.891568	3622.34	3620.96	0.985405	1.169614	0.190548	0.079276	0.062252	317209	51678.2	0.013598	0.010678	0.588028	0.029939	159478	0.005135	3.02092e+07	5.72527e+06	0.189521	911204	4.80794e+06	4.89352e+06	1.11886e+07	2.12047e+06	3.07469e+07	1.13878e+07
[...]
140.654	128.9875	128.814	1.000001	242	2228	595382.625	95428.125	43000908.625	40899	42786.5	0.000044	602982	0.16028	0.147246	0.146195	21037	20882	18559.8	1.863819	18561.6	0.888804	3085.48	3084.1	0.943695	1.117533	0.138467	0.07486	0.066668	303084	37553.3	0.01284	0.011435	0.560718	0.029579	152071	0.005074	2.93486e+07	4.87642e+06	0.166155	776105	4.67098e+06	4.73502e+06	1.08699e+07	1.80608e+06	2.9751e+07	1.10189e+07
148.887	112.5875	112.348	1.000001	242	2228	599259.875	95088.875	43140722.375	41027.25	42926.375	0.000044	606757	0.158677	0.145649	0.144632	20906.1	20756.4	18435.6	1.863819	18437.5	0.8882	3033.6	3032.22	0.943695	1.107164	0.128097	0.070437	0.07109	300272	34741.1	0.012082	0.012194	0.560337	0.029772	151968	0.005107	2.91523e+07	4.79438e+06	0.16446	763049	4.63974e+06	4.70206e+06	1.07972e+07	1.7757e+06	2.9544e+07	1.09422e+07
157.132	96.025	95.8565	1.000001	242	2228	597754.125	99027.375	43259487.875	41146	43044.875	0.000044	605901	0.165666	0.15261	0.151441	20935.6	20764.5	18444.9	1.863819	18446.7	0.888299	3179.85	3178.47	0.943695	1.098368	0.119302	0.066681	0.074847	297887	32355.6	0.011438	0.012838	0.560399	0.029699	151985	0.005094	2.9167e+07	5.02563e+06	0.172305	799853	4.64207e+06	4.71047e+06	1.08026e+07	1.86134e+06	2.95968e+07	1.09618e+07
165.357	80.6	79.4073	1.000001	242	2228	589250.25	104330.25	43360912	41244.25	43130.5	0.000044	598415	0.177056	0.163952	0.162506	21197.6	20988	18669.3	1.863819	18671.2	0.889535	3453.12	3451.75	0.943695	1.090865	0.111799	0.063473	0.078055	295852	30320.8	0.010887	0.013388	0.561179	0.02928	152196	0.005022	2.95218e+07	5.45771e+06	0.18487	868621	4.69854e+06	4.77816e+06	1.0934e+07	2.02137e+06	3.00221e+07	1.11193e+07
173.674	68.5625	62.7735	1.000001	251	2234	582875.625	108404.375	43484631.375	41369.75	43245	0.000044	592871	0.185982	0.172838	0.171148	22191.5	21943.2	19625.7	1.863819	19627.6	0.894395	3806.62	3805.24	0.974977	1.113007	0.13394	0.059559	0.081968	301857	36325.8	0.010216	0.01406	0.585229	0.028962	158719	0.004968	3.1034e+07	6.01664e+06	0.193872	957578	4.93922e+06	5.03118e+06	1.14941e+07	2.22839e+06	3.16119e+07	1.17081e+07
182.12	59.3	45.8823	1.000001	287	2261	581943.75	114126.5	43769224.25	41632	43522.75	0.000044	593029	0.196113	0.182922	0.180921	25367.6	25052.1	22737	1.863819	22738.9	0.907597	4601.93	4600.55	1.115749	1.232793	0.253726	0.050557	0.09097	334344	68812.7	0.008672	0.015604	0.679044	0.028905	184163	0.004958	3.59535e+07	7.27415e+06	0.202321	1.15772e+06	5.72217e+06	5.83811e+06	1.33161e+07	2.69413e+06	3.6682e+07	1.35859e+07
190.382	66.3875	50.1551	1.000001	299	2270	583789	115681	43790067.75	41655.25	43547.875	0.000044	595140	0.198155	0.184955	0.182888	26334.5	26001.4	23686.5	1.863819	23688.3	0.910977	4830.17	4828.8	1.162674	1.278182	0.299116	0.049898	0.091629	346654	81122.7	0.008559	0.015717	0.710071	0.028993	192577	0.004973	3.74547e+07	7.63504e+06	0.203847	1.21515e+06	5.9611e+06	6.08369e+06	1.38721e+07	2.82779e+06	3.8225e+07	1.41574e+07
194.575	74.4625	58.5417	1.000001	299	2270	586197.5	115178.5	43729802.75	41592.5	43495.75	0.000044	597406	0.196484	0.183291	0.181279	26234.6	25910.1	23594.7	1.863819	23596.6	0.910644	4769.85	4768.48	1.162674	1.282621	0.303554	0.051804	0.089723	347858	82326.4	0.008886	0.01539	0.709811	0.029112	192507	0.004994	3.73097e+07	7.53966e+06	0.202083	1.19997e+06	5.93801e+06	6.05805e+06	1.38184e+07	2.79247e+06	3.80639e+07	1.40977e+07

File: Nomex Feb26_30_DCnone.txt
Filename:	P:\+Courses\MatSci\Spring2016\Emily_Adam\DMA\Nomex Feb26_30_DCnone.dm8d
Operator ID:	EmilyAdam
Sample ID:	outerlayer_Feb26_30_DCnone
Comment: 	three cycles, strain at 30 microns, drive control mode=none
Serial Number:	3066274
Data Collected:	2/26/2016 8:39:41 PM
Validation
Validated:	No
By:
Date:
Calibration Information
Filename:	C:\Program Files (x86)\PerkinElmer\Pyris\Calibrations\2_16_16 Tension.dm8c
Date/Time:
Initial Conditions
Temperature:
Measuring System:	Tension - Rectangle
Clamp Mass	9.343 g
Length:	5.830 mm
Width:	8.380 mm
Thickness:	0.440 mm
End Condition:	Go To Load
Total Points in Run:	2277
Method Steps:
Pre-Run Actions
Start the Run
	Action occurs Immediately
Switch the Gas to Nitrogen at 20.0 ml/min
	Action occurs Immediately
1)	Heat from 75.00°C to 150.00°C at 2.00°C/min

2)	Cool from 150.00°C to 40.00°C at 2.00°C/min

3)	Heat from 40.00°C to 150.00°C at 2.00°C/min

4)	Cool from 150.00°C to 40.00°C at 2.00°C/min

5)	Heat from 40.00°C to 150.00°C at 2.00°C/min

6)	Cool from 150.00°C to 40.00°C at 2.00°C/min

1) DMA8000 Temperature Scan
	Time     	Sample     	Program     	Frequency     	Raw Dynamic	Raw Static	In-Phase     	Out-Of-Phase	Zero Displacement	Min Displacement	Max Displacement	Spring     	C*     	Measured     	Corrected     	Corrected     	Stiffness*	Total     	Stiffness     	Inertia     	Sample     	Ratio of     	Total     	Sample     	Total Applied	Static Force	Static     	Static     	Static     	Static Stress	Static     	Static Strain	Static     	Dynamic Force	Displacement	Dynamic     	Dynamic     	Storage     	Loss Modulus	Tan Delta     	Loss Viscosity	Storage     	Complex     	Shear Storage	Shear Loss	Complex     	Shear Complex
	          	Temperature	Temperature	          	Force     	Force     	Angle     	Angle     	               	               	               	Stiffness     	          	Tan Delta     	Total Tan Delta	Total Delta	          	Stiffness'	Less Spring	          	Stiffness'	Sample to Total	Stiffness''	Stiffness''	Static Force	          	Force Corrected	Displacement	Displacement Co	          	Stress Correcte	          	Strain Correcte	          	Amplitude     	Stress     	Strain     	Modulus     	          	          	               	Viscosity     	Viscosity     	Modulus     	Modulus     	Modulus     	Modulus
	0.000000	74.25	75	1.000001	66	2075	525350	68150.2	4.12118e+07	39306.4	40961.4	0.000045	529752	0.129724	0.116796	0.116270	6530.47	6493.15	4148.29	1.863819	4150.16	0.638975	759.191	757.801	0.145986	0.454221	0.000000	0.131451	0.000000	123189	0.000000	0.022547	0.000000	0.109939	0.026151	29816.3	0.004486	6.562e+06	1.19819e+06	0.182596	190698	1.04437e+06	1.06164e+06	2.43037e+06	443776	6.6705e+06	2.47055e+06
	1.578721	76.7625	78.1574	1.000001	74	2075	596317	66340.6	4.11518e+07	39111.2	40980.1	0.000045	599996	0.111251	0.098377	0.098061	6464.82	6440.45	4094.69	1.863819	4096.55	0.635882	634.264	632.874	0.145986	0.458789	0.004568	0.133348	0.001897	124428	1238.94	0.022873	0.000325	0.122668	0.029677	33268.6	0.005090	6.47724e+06	1.00067e+06	0.154490	159261	1.03088e+06	1.04311e+06	2.39898e+06	370617	6.55408e+06	2.42744e+06
	3.149123	80.2375	81.2982	1.000001	74	2075	592137	65736.2	4.1128e+07	39103.1	40952.8	0.000045	595775	0.111015	0.098142	0.097829	6510.62	6486.28	4140.15	1.863819	4142.02	0.638398	637.258	635.868	0.145986	0.460601	0.006380	0.134100	0.002648	124919	1730.29	0.023002	0.000454	0.123153	0.029468	33400.2	0.005055	6.54913e+06	1.0054e+06	0.153517	160014	1.04233e+06	1.05454e+06	2.4256e+06	372370	6.62586e+06	2.45402e+06
	4.708865	83.55	84.4177	1.000001	75	2075	594990	65262.4	4.11024e+07	39070.2	40928.5	0.000045	598558	0.109687	0.096817	0.096516	6567.92	6544.27	4197.75	1.863819	4199.61	0.641541	634.28	632.889	0.145986	0.462555	0.008334	0.134910	0.003459	125449	2260.22	0.023141	0.000593	0.125432	0.029610	34018.3	0.005079	6.6402e+06	1.00069e+06	0.150702	159265	1.05682e+06	1.06875e+06	2.45933e+06	370626	6.71518e+06	2.4871e+06
	6.290967	86.7125	87.5819	1.000001	75	2075	591746	65435.4	4.10766e+07	39049.2	40908.1	0.000045	595353	0.110580	0.097708	0.097399	6603.28	6578.97	4232.05	1.863819	4233.92	0.643371	643.516	642.126	0.145986	0.464528	0.010307	0.135728	0.004277	125984	2795.26	0.023281	0.000734	0.125790	0.029448	34115.3	0.005051	6.69444e+06	1.01529e+06	0.151662	161589	1.06545e+06	1.07764e+06	2.47942e+06	376035	6.77099e+06	2.50777e+06
	7.862669	90.025	90.7253	1.000001	76	2075	596115	65363.9	4.10488e+07	39014.4	40880.2	0.000045	599688	0.109650	0.096780	0.096480	6642.96	6619.13	4271.79	1.863819	4273.66	0.645470	641.301	639.91	0.145986	0.466650	0.012429	0.136607	0.005156	126559	3370.81	0.023432	0.000884	0.127883	0.029665	34682.9	0.005088	6.75727e+06	1.01179e+06	0.149734	161031	1.07545e+06	1.08744e+06	2.50269e+06	374737	6.8326e+06	2.53059e+06
	9.428911	93.1	93.8578	1.000001	76	2075	591490	65735.4	4.10242e+07	38996.8	40852.6	0.000045	595132	0.111135	0.098262	0.097947	6693.81	6668.9	4321.18	1.863819	4323.05	0.648058	656.019	654.628	0.145986	0.468525	0.014304	0.137384	0.005932	127068	3879.27	0.023565	0.001018	0.128396	0.029435	34822	0.005049	6.83537e+06	1.03506e+06	0.151427	164735	1.08788e+06	1.10028e+06	2.53162e+06	383356	6.91329e+06	2.56048e+06
	10.9985	96.2	96.9971	1.000001	77	2075	595605	65903.6	4.0996e+07	38963	40830.5	0.000045	599240	0.110650	0.097778	0.097468	6735.39	6710.69	4362.53	1.863819	4364.4	0.650184	656.883	655.491	0.145986	0.470679	0.016458	0.138276	0.006824	127652	4463.56	0.023718	0.001171	0.130512	0.029640	35395.9	0.005084	6.90075e+06	1.03643e+06	0.150191	164952	1.09829e+06	1.11061e+06	2.55583e+06	383862	6.97814e+06	2.5845e+06
	12.5624	99.325	100.125	1.000001	77	2075	590418	66235	4.097e+07	38951.5	40795.1	0.000045	594121	0.112183	0.099307	0.098983	6793.42	6767.56	4418.99	1.863819	4420.86	0.653063	672.817	671.425	0.145986	0.472669	0.018448	0.139099	0.007648	128192	5003.14	0.023859	0.001312	0.131090	0.029382	35552.6	0.005040	6.99002e+06	1.06162e+06	0.151877	168962	1.1125e+06	1.12525e+06	2.5889e+06	393193	7.07018e+06	2.61858e+06
	14.1282	102.475	103.256	1.000001	78	2075	594933	66326	4.09397e+07	38915.5	40772	0.000045	598619	0.111485	0.098611	0.098293	6829.94	6804.45	4455.41	1.863819	4457.27	0.654873	671.742	670.35	0.145986	0.474982	0.020761	0.140056	0.008604	128819	5630.64	0.024023	0.001476	0.133160	0.029606	36114.2	0.005078	7.04759e+06	1.05992e+06	0.150395	168692	1.12166e+06	1.13427e+06	2.61022e+06	392563	7.12685e+06	2.63957e+06
	15.6965	105.612	106.393	1.000001	78	2075	590286	66785.5	4.09125e+07	38893.6	40740.4	0.000045	594052	0.113141	0.100262	0.099928	6882.45	6855.69	4506.23	1.863819	4508.09	0.657390	688.143	686.751	0.145986	0.477065	0.022844	0.140917	0.009465	129384	6195.39	0.024171	0.001624	0.133672	0.029375	36253	0.005039	7.12795e+06	1.08585e+06	0.152338	172819	1.13445e+06	1.14753e+06	2.63998e+06	402168	7.21018e+06	2.67044e+06
	17.2752	108.725	109.55	1.000001	79	2075	594473	67030.9	4.08808e+07	38849	40714.5	0.000045	598241	0.112757	0.099879	0.099549	6921.88	6895.28	4545.31	1.863819	4547.18	0.659284	689.477	688.084	0.145986	0.479492	0.025271	0.141919	0.010468	130042	6853.67	0.024343	0.001796	0.135776	0.029583	36823.6	0.005074	7.18975e+06	1.08796e+06	0.151321	173154	1.14428e+06	1.15731e+06	2.66287e+06	402949	7.2716e+06	2.69318e+06
[...]
	293.995	59.4	46.2853	1.000001	80	2075	596356	66476.8	4.07669e+07	38736.6	40604.6	0.000045	600049	0.111472	0.098597	0.098280	6988.37	6962.47	4610.68	1.863819	4612.54	0.662309	687.269	685.876	0.145986	0.488228	0.034007	0.145524	0.014073	132412	9223.08	0.024961	0.002414	0.138125	0.029676	37460.8	0.005090	7.2931e+06	1.08447e+06	0.148698	172599	1.16073e+06	1.17349e+06	2.70115e+06	401655	7.37329e+06	2.73085e+06
	296.32	57.3	41.6339	1.000001	80	2075	596259	66455.2	4.07749e+07	38749.5	40614.1	0.000045	599951	0.111454	0.098580	0.098262	6989.52	6963.63	4611.96	1.863819	4613.83	0.662384	687.258	685.865	0.145986	0.487608	0.033386	0.145268	0.013817	132243	9054.68	0.024917	0.002370	0.138141	0.029671	37465	0.005089	7.29513e+06	1.08445e+06	0.148654	172596	1.16106e+06	1.17381e+06	2.7019e+06	401649	7.3753e+06	2.73159e+06
	297.367	56.425	39.5404	1.000001	80	2075	596085	65923.6	4.07784e+07	38755.4	40612.2	0.000045	599719	0.110594	0.097722	0.097413	6992.21	6966.9	4615.29	1.863819	4617.16	0.662550	681.604	680.21	0.145986	0.487346	0.033125	0.145160	0.013709	132172	8983.82	0.024899	0.002351	0.138176	0.029662	37474.4	0.005088	7.30039e+06	1.07551e+06	0.147322	171173	1.16189e+06	1.17443e+06	2.70385e+06	398338	7.37919e+06	2.73303e+06

	BALANCE ZERO CALIBRATION RESULTS:
Date:	2/16/2016 3:55:56 PM
Zero Displacement Value:	45367595
Rebalance Force Value:	1980.000

	FORCE FACTOR CALIBRATION RESULTS:
Date:	7/27/2015 3:21:49 PM
Force Factor Value:	  383.599

	SPRING CALIBRATION RESULTS:
Date:	12/4/2014 2:37:24 PM
Stiffness polynomial = 	4.3980e-005, -7.5231e-014, 2.5704e-020, -3.6776e-029, -1.5883e-035, 2.9932e-045, 1.3748e-050
Spring Damping =	0.000593

	FORCE DISPLACEMENT CALIBRATION RESULTS:
Date:	2/26/2016 12:19:32 PM
Displacement Factor Value:	30874

	DE-MOD CONSTANT CALIBRATION RESULTS:
Date:	2/26/2016 12:19:32 PM
De-Mod Constant Value:	0.000562

	PHASE OFFSET CALIBRATION RESULTS:
Date:	2/26/2016 12:19:32 PM
Phase Offset Value:	   -0.009200

	DRIVE SHAFT MASS CALIBRATION RESULTS:
Date:	2/26/2016 12:19:32 PM
Drive Shaft Mass = 	   37.868 g

	OVEN CALIBRATION RESULTS:
Date:	2/26/2016 12:19:32 PM
Sensor Type = 	10
Oven Resistance = 	5.600 Ohms
Oven Name = 	Standard Air OvenStandard Air Oven

	TEMPERATURE CALIBRATION:
Date:	2/26/2016 12:19:32 PM
Upper Limit = 	400.00 °C
Lower Limit = 	-200.00 °C
Offset = 	-6.000
Span = 	-8.700
Ambient: 	Expected 	21.00 (°C)	Measured 	21.00 (°C)
Indium: 	Expected 	156.60 (°C)	Measured 	156.60 (°C)

	PID CALIBRATION:
Date:	12/16/2014 11:36:02 AM
Set Point =	 105.000 °C
PropBand = 	23.000
PropBandSP2 = 	13.000
Integral = 	2.100
Derivative = 	9.000
Calculated Integral = 	-57

	STIFFNESS INFINITY CALIBRATION RESULTS:
Date:	2/26/2016 12:19:32 PM
Stiffness Infinity = 	6130000.000

	INSTRUMENT INFOMATION CALIBRATION RESULTS:
Date:	2/26/2016 12:19:32 PM
DMA Serial Number = 	3066274
Vibrator Serial Number = 	22865
LVDT Serial Number = 	624.08
Analogue PCB Serial Number = 	890
Digital PCB Serial Number = 	895
PIC Code = 	603
FPGA Code = 	621
Instrument Type = 	2
AD Fitted = 	No

	PROFILE VALUES FOR THIS DATA:

Software Version	11.1.0.0488
Firmware Version	603.621
Load Temperature	22.0 °C
Go To Temp Rate	2.0 °C/min
Load Strain	0.010 mm
Load Frequency	1.0 Hz
Strain control window	0.02
Cooling Device
Automatic cryogenic control is 	Off
Automatic cryogenic control on temperature	50.0
Automatic cryogenic control off temperature	40.0
Number of averages	2
Broken sample threshold	0.0 %
Poisson's Ratio	0.35